ax	ay	az
-0.15470886	9.575073	1.9222565
-0.1451416	9.587036	1.8720093
-0.14753723	9.591827	1.8385162
-0.13557434	9.599014	1.8121948
-0.13796997	9.599014	1.7906494
-0.1451416	9.601395	1.7786865
-0.1451416	9.599014	1.7715149
-0.14753723	9.596619	1.7858734
-0.15232849	9.591827	1.8217621
-0.1451416	9.5798645	1.8839722
-0.1403656	9.570297	1.9437866
-0.13796997	9.56073	1.9988251
-0.12838745	9.553543	2.0442963
-0.12838745	9.548752	2.0777893
-0.12121582	9.548752	2.0993347
-0.12361145	9.548752	2.1160736
-0.12600708	9.546371	2.1160736
-0.13078308	9.553543	2.0945435
-0.13317871	9.555939	2.0706177
-0.13557434	9.558334	2.0490723
-0.13796997	9.56073	2.0227509
-0.1403656	9.565506	1.9892578
-0.14274597	9.567902	1.9605408
-0.14274597	9.567902	1.9533691
-0.13796997	9.565506	1.970108
-0.12838745	9.565506	1.9892578
-0.12838745	9.565506	1.9964294
-0.12838745	9.56311	1.9964294
-0.12838745	9.56073	2.0036163
-0.12600708	9.56073	2.0036163
-0.12600708	9.56311	1.9964294
-0.12121582	9.565506	1.9820862
-0.12838745	9.570297	1.970108
-0.13317871	9.575073	1.9581451
-0.13078308	9.577469	1.9533691
-0.13317871	9.577469	1.9437866
-0.13078308	9.577469	1.9437866
-0.12838745	9.575073	1.9437866
-0.12361145	9.577469	1.9461823
-0.12361145	9.577469	1.9509735
-0.12121582	9.575073	1.9581451
-0.11642456	9.575073	1.9748993
-0.12121582	9.572693	1.9892578
-0.11404419	9.572693	1.9964294
-0.11882019	9.570297	2.0036163
-0.11882019	9.570297	2.0012207
-0.11882019	9.572693	1.9964294
-0.11164856	9.575073	1.9868622
-0.11404419	9.577469	1.970108
-0.11882019	9.577469	1.9533691
-0.11882019	9.577469	1.9461823
-0.12361145	9.58226	1.9318237
-0.12361145	9.58226	1.9246521
-0.12600708	9.58226	1.9222565
-0.11404419	9.58226	1.9270477
-0.10925293	9.5798645	1.9461823
-0.10446167	9.577469	1.9533691
-0.1068573	9.577469	1.9509735
-0.1068573	9.575073	1.9485779
-0.1068573	9.575073	1.9437866
-0.1068573	9.577469	1.9414062
-0.1068573	9.5798645	1.9390106
-0.10925293	9.5798645	1.9342194
-0.10925293	9.5798645	1.9270477
-0.11164856	9.5798645	1.9174805
-0.11404419	9.584656	1.907898
-0.11404419	9.584656	1.9055023
-0.10925293	9.584656	1.9102936
-0.10446167	9.587036	1.9198608
-0.10446167	9.587036	1.9342194
-0.09968567	9.584656	1.9485779
-0.09729004	9.577469	1.9629364
-0.10206604	9.577469	1.9605408
-0.10446167	9.5798645	1.9557648
-0.10446167	9.5798645	1.9509735
-0.10206604	9.584656	1.9461823
-0.10446167	9.584656	1.9390106
-0.10925293	9.584656	1.936615
-0.11404419	9.584656	1.9294434
-0.11404419	9.584656	1.9270477
-0.11882019	9.5798645	1.9318237
-0.11882019	9.5798645	1.9414062
-0.1068573	9.5798645	1.9509735
-0.08772278	9.58226	1.9629364
-0.09010315	9.58226	1.9629364
-0.09489441	9.58226	1.9629364
-0.10206604	9.577469	1.965332
-0.10206604	9.5798645	1.9677277
-0.10446167	9.577469	1.9677277
-0.1068573	9.5798645	1.970108
-0.1068573	9.5798645	1.9748993
-0.09968567	9.577469	1.9844666
-0.09010315	9.577469	1.9940491
-0.08772278	9.577469	1.9988251
-0.09010315	9.575073	1.9892578
-0.09010315	9.575073	1.9820862
-0.08053589	9.577469	1.9772949
-0.08293152	9.577469	1.9725037
-0.08532715	9.58226	1.9509735
-0.08532715	9.584656	1.9342194
-0.08772278	9.587036	1.9222565
-0.08772278	9.587036	1.9222565
-0.09010315	9.587036	1.9270477
-0.09010315	9.584656	1.9318237
-0.08532715	9.584656	1.9461823
-0.08772278	9.584656	1.9485779
-0.08532715	9.58226	1.9342194
-0.07814026	9.584656	1.9174805
-0.08293152	9.587036	1.895935
-0.08293152	9.591827	1.867218
-0.08772278	9.591827	1.867218
-0.08293152	9.594223	1.8839722
-0.09010315	9.596619	1.891159
-0.09010315	9.599014	1.891159
-0.09010315	9.601395	1.9007263
-0.08772278	9.599014	1.907898
-0.09249878	9.599014	1.9055023
-0.09249878	9.596619	1.895935
-0.08053589	9.594223	1.903122
-0.07096863	9.596619	1.9126892
-0.068573	9.596619	1.9150848
-0.07336426	9.596619	1.903122
-0.07574463	9.599014	1.8983307
-0.08053589	9.596619	1.8983307
-0.07336426	9.596619	1.8935394
-0.07336426	9.596619	1.8839722
-0.068573	9.596619	1.8768005
-0.056610107	9.601395	1.867218
-0.056610107	9.608582	1.8576508
-0.059005737	9.608582	1.8480835
-0.06617737	9.608582	1.8432922
-0.068573	9.60379	1.8504791
-0.07574463	9.606186	1.8648376
-0.07814026	9.601395	1.8815765
-0.068573	9.599014	1.8983307
-0.068573	9.591827	1.9222565
-0.059005737	9.591827	1.9342194
-0.054214478	9.591827	1.936615
-0.056610107	9.591827	1.9318237
-0.06378174	9.591827	1.9198608
-0.068573	9.589432	1.9102936
-0.07574463	9.589432	1.9150848
-0.07814026	9.587036	1.9318237
-0.07574463	9.587036	1.9533691
-0.07336426	9.589432	1.9605408
-0.07096863	9.587036	1.965332
-0.06378174	9.584656	1.9557648
-0.056610107	9.584656	1.9390106
-0.054214478	9.584656	1.9342194
-0.056610107	9.587036	1.9390106
-0.051818848	9.584656	1.9437866
-0.059005737	9.584656	1.9414062
-0.06617737	9.587036	1.9318237
-0.068573	9.591827	1.9126892
-0.068573	9.594223	1.895935
-0.07096863	9.599014	1.8744049
-0.07336426	9.60379	1.8552551
-0.07814026	9.606186	1.8385162
-0.08053589	9.60379	1.8313293
-0.07336426	9.60379	1.8385162
-0.07096863	9.606186	1.8289337
-0.07096863	9.610977	1.8074036
-0.068573	9.610977	1.8026123
-0.06617737	9.608582	1.7978363
-0.056610107	9.608582	1.8002319
-0.044647217	9.60379	1.8289337
-0.042251587	9.601395	1.8528595
-0.042251587	9.594223	1.8696136
-0.027893066	9.591827	1.8887634
-0.027893066	9.589432	1.9007263
-0.042251587	9.591827	1.8887634
-0.047042847	9.594223	1.8648376
-0.049438477	9.596619	1.8552551
-0.051818848	9.596619	1.862442
-0.044647217	9.596619	1.8768005
-0.047042847	9.596619	1.867218
-0.054214478	9.601395	1.8456879
-0.047042847	9.608582	1.8193665
-0.047042847	9.610977	1.7834778
-0.049438477	9.618149	1.7404022
-0.056610107	9.620544	1.7045135
-0.059005737	9.627716	1.6686249
-0.054214478	9.627716	1.6542664
-0.056610107	9.630112	1.6470795
-0.059005737	9.632507	1.632721
-0.06617737	9.632507	1.627945
-0.059005737	9.637299	1.6303406
-0.059005737	9.639679	1.6231537
-0.061401367	9.642075	1.6087952
-0.061401367	9.639679	1.6183777
-0.06617737	9.642075	1.620758
-0.068573	9.642075	1.6111908
-0.068573	9.642075	1.6063995
-0.07096863	9.642075	1.5920563
-0.07096863	9.64447	1.5681152
-0.08053589	9.646866	1.5394135
-0.09249878	9.654037	1.4915466
-0.09968567	9.658829	1.4460907
-0.10925293	9.66362	1.4173737
-0.11404419	9.666	1.3982239
-0.1068573	9.666	1.4006195
-0.09249878	9.661224	1.4221649
-0.08532715	9.661224	1.4484863
-0.07814026	9.658829	1.4604492
-0.07096863	9.656433	1.4676208
-0.07336426	9.656433	1.4628296
-0.07096863	9.661224	1.4532623
-0.068573	9.661224	1.4508667
-0.06378174	9.66362	1.4389038
-0.07096863	9.666	1.4197693
-0.07814026	9.670792	1.3958435
-0.08293152	9.673187	1.3742981
-0.08772278	9.673187	1.3671265
-0.08772278	9.673187	1.3671265
-0.08532715	9.673187	1.3766937
-0.08772278	9.675583	1.381485
-0.08772278	9.677963	1.381485
-0.08532715	9.675583	1.3838806
-0.07574463	9.673187	1.3934479
-0.07336426	9.668396	1.414978
-0.07336426	9.668396	1.4245453
-0.07574463	9.668396	1.4197693
-0.07814026	9.670792	1.4197693
-0.08293152	9.668396	1.4173737
-0.08532715	9.670792	1.4006195
-0.09010315	9.673187	1.3838806
-0.09489441	9.675583	1.3623352
-0.09010315	9.680359	1.3575592
-0.08772278	9.677963	1.3599396
-0.08293152	9.677963	1.352768
-0.08293152	9.675583	1.3479767
-0.07814026	9.675583	1.3575592
-0.07814026	9.675583	1.3671265
-0.068573	9.670792	1.386261
-0.061401367	9.666	1.4197693
-0.059005737	9.661224	1.4341278
-0.059005737	9.661224	1.4365082
-0.06378174	9.66362	1.4221649
-0.07336426	9.668396	1.3934479
-0.08293152	9.670792	1.3695221
-0.08772278	9.673187	1.3575592
-0.09010315	9.673187	1.340805
-0.08772278	9.675583	1.3264465
-0.08293152	9.680359	1.3144836
-0.08772278	9.6827545	1.2953339
-0.09010315	9.687546	1.2714081
-0.09010315	9.689941	1.2594452
-0.08532715	9.689941	1.2642365
-0.08772278	9.689941	1.278595
-0.08772278	9.689941	1.2857666
-0.08532715	9.689941	1.3001251
-0.08293152	9.687546	1.3216553
-0.07814026	9.68515	1.3432007
-0.07096863	9.677963	1.3671265
-0.068573	9.675583	1.3838806
-0.07096863	9.675583	1.3934479
-0.07096863	9.673187	1.3958435
-0.07096863	9.670792	1.3934479
-0.068573	9.673187	1.3958435
-0.06378174	9.673187	1.3958435
-0.059005737	9.675583	1.386261
-0.059005737	9.675583	1.381485
-0.061401367	9.675583	1.3742981
-0.06617737	9.673187	1.3671265
-0.06617737	9.673187	1.3623352
-0.068573	9.675583	1.3551636
-0.06617737	9.677963	1.3599396
-0.061401367	9.677963	1.3766937
-0.059005737	9.677963	1.3838806
-0.061401367	9.677963	1.3790894
-0.056610107	9.675583	1.3790894
-0.059005737	9.677963	1.3742981
-0.059005737	9.680359	1.3647308
-0.056610107	9.680359	1.3599396
-0.059005737	9.680359	1.3575592
-0.059005737	9.680359	1.3551636
-0.056610107	9.677963	1.352768
-0.054214478	9.680359	1.3551636
-0.059005737	9.680359	1.3551636
-0.061401367	9.680359	1.3503723
-0.06617737	9.680359	1.3432007
-0.07096863	9.677963	1.345581
-0.07574463	9.680359	1.3432007
-0.08532715	9.6827545	1.3312378
-0.08772278	9.68515	1.3168793
-0.08532715	9.687546	1.3001251
-0.07574463	9.689941	1.278595
-0.068573	9.692322	1.2690125
-0.061401367	9.689941	1.2594452
-0.056610107	9.689941	1.2546539
-0.061401367	9.692322	1.2570496
-0.06378174	9.692322	1.2714081
-0.061401367	9.68515	1.2977295
-0.056610107	9.677963	1.3240509
-0.049438477	9.677963	1.3479767
-0.049438477	9.677963	1.3671265
-0.047042847	9.670792	1.3790894
-0.047042847	9.668396	1.3958435
-0.037460327	9.666	1.4293365
-0.035079956	9.666	1.4532623
-0.037460327	9.668396	1.4580536
-0.039855957	9.670792	1.4508667
-0.049438477	9.673187	1.4269409
-0.059005737	9.675583	1.3958435
-0.061401367	9.677963	1.3647308
-0.06617737	9.680359	1.340805
-0.068573	9.68515	1.3192749
-0.07096863	9.68515	1.312088
-0.07096863	9.687546	1.3096924
-0.061401367	9.687546	1.3192749
-0.059005737	9.6827545	1.340805
-0.051818848	9.680359	1.3479767
-0.059005737	9.6827545	1.340805
-0.068573	9.6827545	1.3288422
-0.068573	9.6827545	1.3192749
-0.07814026	9.68515	1.3025208
-0.08532715	9.687546	1.2857666
-0.08532715	9.692322	1.283371
-0.08532715	9.689941	1.283371
-0.08053589	9.687546	1.2905579
-0.07336426	9.687546	1.2929535
-0.07336426	9.68515	1.2905579
-0.07336426	9.68515	1.2977295
-0.06378174	9.680359	1.3216553
-0.054214478	9.673187	1.3575592
-0.049438477	9.670792	1.3934479
-0.042251587	9.666	1.4197693
-0.030288696	9.661224	1.4412994
-0.023117065	9.658829	1.4676208
-0.027893066	9.656433	1.4724121
-0.035079956	9.658829	1.4508667
-0.044647217	9.66362	1.4125824
-0.056610107	9.668396	1.3719025
-0.061401367	9.677963	1.3312378
-0.07336426	9.6827545	1.2905579
-0.08053589	9.68515	1.2522736
-0.08772278	9.692322	1.2307281
-0.09249878	9.694717	1.2211609
-0.09489441	9.694717	1.2187653
-0.09729004	9.692322	1.2283325
-0.09249878	9.692322	1.2355194
-0.09010315	9.692322	1.2450867
-0.09010315	9.687546	1.2594452
-0.08772278	9.687546	1.278595
-0.08293152	9.6827545	1.312088
-0.07814026	9.680359	1.3479767
-0.068573	9.673187	1.3886566
-0.059005737	9.668396	1.4221649
-0.056610107	9.666	1.4436951
-0.054214478	9.666	1.4460907
-0.054214478	9.666	1.4508667
-0.059005737	9.66362	1.4508667
-0.061401367	9.666	1.4436951
-0.068573	9.668396	1.4245453
-0.07096863	9.673187	1.4054108
-0.07574463	9.675583	1.3838806
-0.07336426	9.675583	1.3671265
-0.07336426	9.675583	1.3623352
-0.07574463	9.680359	1.352768
-0.07814026	9.6827545	1.3432007
-0.07336426	9.680359	1.345581
-0.07096863	9.677963	1.3623352
-0.07096863	9.675583	1.3742981
-0.06617737	9.673187	1.386261
-0.061401367	9.668396	1.4054108
-0.056610107	9.668396	1.414978
-0.054214478	9.668396	1.4173737
-0.051818848	9.670792	1.4293365
-0.061401367	9.668396	1.4221649
-0.06617737	9.670792	1.4054108
-0.07336426	9.670792	1.3982239
-0.07574463	9.675583	1.3886566
-0.07814026	9.675583	1.3766937
-0.08053589	9.677963	1.3719025
-0.07336426	9.675583	1.3695221
-0.068573	9.675583	1.3695221
-0.06617737	9.677963	1.3742981
-0.068573	9.675583	1.381485
-0.06617737	9.673187	1.3934479
-0.06378174	9.670792	1.410202
-0.07096863	9.670792	1.4173737
-0.068573	9.670792	1.4173737
-0.06617737	9.668396	1.4125824
-0.06617737	9.670792	1.4054108
-0.06378174	9.673187	1.4006195
-0.061401367	9.673187	1.4125824
-0.059005737	9.668396	1.4245453
-0.056610107	9.666	1.4365082
-0.056610107	9.66362	1.4532623
-0.054214478	9.666	1.455658
-0.051818848	9.668396	1.4604492
-0.056610107	9.666	1.4484863
-0.061401367	9.666	1.4317322
-0.06378174	9.666	1.4245453
-0.06378174	9.670792	1.4221649
-0.06378174	9.670792	1.4221649
-0.061401367	9.668396	1.4269409
-0.059005737	9.668396	1.4341278
-0.061401367	9.666	1.4365082
-0.06378174	9.666	1.4341278
-0.068573	9.668396	1.4412994
-0.068573	9.666	1.4436951
-0.061401367	9.666	1.4412994
-0.061401367	9.668396	1.4341278
-0.056610107	9.670792	1.4197693
-0.054214478	9.670792	1.4006195
-0.061401367	9.677963	1.3742981
-0.068573	9.680359	1.352768
-0.07574463	9.6827545	1.340805
-0.07814026	9.680359	1.345581
-0.07814026	9.675583	1.3719025
-0.07096863	9.670792	1.414978
-0.061401367	9.66362	1.4676208
-0.056610107	9.656433	1.5154724
-0.061401367	9.654037	1.5298309
-0.07336426	9.656433	1.5106964
-0.07574463	9.661224	1.489151
-0.06617737	9.66362	1.489151
-0.051818848	9.656433	1.513092
-0.037460327	9.651657	1.5465851
-0.025497437	9.64447	1.5800781
-0.015930176	9.642075	1.6135864
-0.018325806	9.639679	1.6303406
-0.015930176	9.637299	1.6231537
-0.015930176	9.639679	1.6063995
-0.023117065	9.642075	1.587265
-0.030288696	9.649261	1.5537567
-0.037460327	9.654037	1.513092
-0.042251587	9.658829	1.484375
-0.049438477	9.66362	1.455658
-0.051818848	9.668396	1.4293365
-0.054214478	9.670792	1.4245453
-0.049438477	9.668396	1.4341278
-0.037460327	9.66362	1.455658
-0.027893066	9.658829	1.4867706
-0.025497437	9.654037	1.5059052
-0.018325806	9.646866	1.5346222
-0.023117065	9.642075	1.5513763
-0.032684326	9.64447	1.5441895
-0.047042847	9.646866	1.5322266
-0.056610107	9.651657	1.5250549
-0.061401367	9.651657	1.5154724
-0.06617737	9.651657	1.5059052
-0.06378174	9.651657	1.5011292
-0.056610107	9.651657	1.5011292
-0.051818848	9.651657	1.5035095
-0.049438477	9.654037	1.5083008
-0.042251587	9.651657	1.5202637
-0.047042847	9.656433	1.5250549
-0.047042847	9.656433	1.5202637
-0.051818848	9.656433	1.5154724
-0.051818848	9.654037	1.5202637
-0.047042847	9.654037	1.5202637
-0.042251587	9.654037	1.5226593
-0.039855957	9.651657	1.5202637
-0.037460327	9.654037	1.517868
-0.042251587	9.654037	1.5083008
-0.049438477	9.656433	1.4915466
-0.049438477	9.656433	1.4724121
-0.051818848	9.661224	1.4532623
-0.049438477	9.66362	1.4293365
-0.044647217	9.66362	1.4125824
-0.039855957	9.66362	1.386261
-0.039855957	9.668396	1.3623352
-0.044647217	9.673187	1.3384094
-0.049438477	9.675583	1.312088
-0.049438477	9.675583	1.3049164
-0.049438477	9.675583	1.3216553
-0.051818848	9.670792	1.3551636
-0.047042847	9.668396	1.3934479
-0.047042847	9.666	1.4365082
-0.051818848	9.661224	1.4676208
-0.056610107	9.656433	1.4771881
-0.059005737	9.658829	1.4771881
-0.059005737	9.661224	1.4724121
-0.061401367	9.66362	1.4652252
-0.056610107	9.666	1.4676208
-0.054214478	9.66362	1.4700165
-0.061401367	9.666	1.4532623
-0.06378174	9.668396	1.4341278
-0.06617737	9.668396	1.4269409
-0.061401367	9.668396	1.4197693
-0.06378174	9.668396	1.4221649
-0.06378174	9.666	1.4245453
-0.06617737	9.668396	1.4269409
-0.06378174	9.668396	1.4484863
-0.068573	9.661224	1.4604492
-0.068573	9.661224	1.4628296
-0.07096863	9.66362	1.4652252
-0.07336426	9.666	1.4532623
-0.07814026	9.668396	1.4293365
-0.08293152	9.673187	1.4054108
-0.08053589	9.673187	1.3910522
-0.07574463	9.673187	1.3790894
-0.07336426	9.675583	1.3671265
-0.08293152	9.677963	1.3551636
-0.08532715	9.680359	1.340805
-0.09010315	9.6827545	1.3336182
-0.09249878	9.6827545	1.3264465
-0.09249878	9.6827545	1.3312378
-0.09010315	9.680359	1.3336182
-0.08532715	9.680359	1.3312378
-0.07574463	9.677963	1.3479767
-0.06617737	9.677963	1.3647308
-0.059005737	9.675583	1.3766937
-0.059005737	9.675583	1.3910522
-0.06378174	9.677963	1.3910522
-0.07336426	9.675583	1.3790894
-0.07336426	9.677963	1.3551636
-0.08293152	9.677963	1.3312378
-0.08532715	9.6827545	1.3049164
-0.08053589	9.68515	1.2809753
-0.07814026	9.68515	1.278595
-0.07096863	9.68515	1.278595
-0.068573	9.6827545	1.278595
-0.061401367	9.687546	1.2761993
-0.068573	9.689941	1.2690125
-0.07336426	9.689941	1.2546539
-0.08293152	9.692322	1.2450867
-0.09010315	9.692322	1.2355194
-0.08293152	9.694717	1.2235565
-0.07814026	9.694717	1.2355194
-0.07336426	9.692322	1.2450867
-0.07096863	9.692322	1.2474823
-0.07336426	9.692322	1.2450867
-0.08053589	9.692322	1.2474823
-0.08293152	9.692322	1.2474823
-0.09010315	9.694717	1.2355194
-0.09489441	9.697113	1.2163696
-0.09010315	9.697113	1.2115936
-0.07574463	9.692322	1.2403107
-0.06617737	9.687546	1.2618408
-0.068573	9.689941	1.2594452
-0.07336426	9.689941	1.2594452
-0.07814026	9.689941	1.2618408
-0.07814026	9.687546	1.2594452
-0.08053589	9.687546	1.2546539
-0.08772278	9.689941	1.2403107
-0.08293152	9.689941	1.242691
-0.08293152	9.68515	1.2594452
-0.08293152	9.687546	1.2594452
-0.08772278	9.687546	1.2570496
-0.08053589	9.687546	1.2690125
-0.068573	9.6827545	1.2953339
-0.059005737	9.677963	1.3144836
-0.047042847	9.675583	1.3240509
-0.044647217	9.673187	1.3216553
-0.051818848	9.677963	1.3025208
-0.059005737	9.677963	1.2761993
-0.06617737	9.6827545	1.242691
-0.07574463	9.687546	1.2163696
-0.08053589	9.692322	1.1972351
-0.08532715	9.692322	1.1924438
-0.08293152	9.689941	1.1948395
-0.08053589	9.692322	1.2044067
-0.07574463	9.68515	1.2259521
-0.07096863	9.68515	1.2522736
-0.06617737	9.6827545	1.2761993
-0.06617737	9.680359	1.3049164
-0.06378174	9.675583	1.3240509
-0.06378174	9.673187	1.3312378
-0.06378174	9.675583	1.3312378
-0.06617737	9.675583	1.3168793
-0.068573	9.677963	1.283371
-0.07814026	9.687546	1.2307281
-0.08532715	9.694717	1.1852722
-0.09249878	9.697113	1.1589508
-0.09249878	9.699509	1.1493835
-0.08772278	9.697113	1.1685181
-0.07574463	9.692322	1.2163696
-0.061401367	9.68515	1.2857666
-0.059005737	9.675583	1.3432007
-0.059005737	9.670792	1.3766937
-0.054214478	9.668396	1.4006195
-0.056610107	9.666	1.4054108
-0.054214478	9.666	1.4078064
-0.047042847	9.666	1.4197693
-0.047042847	9.666	1.4125824
-0.056610107	9.673187	1.3958435
-0.06378174	9.675583	1.3886566
-0.068573	9.673187	1.3766937
-0.07096863	9.675583	1.3575592
-0.06617737	9.675583	1.345581
-0.059005737	9.677963	1.340805
-0.056610107	9.680359	1.3240509
-0.059005737	9.680359	1.3025208
-0.051818848	9.680359	1.3001251
-0.042251587	9.675583	1.3192749
-0.042251587	9.680359	1.3312378
-0.049438477	9.677963	1.3360138
-0.054214478	9.675583	1.352768
-0.049438477	9.677963	1.3695221
-0.047042847	9.675583	1.3790894
-0.042251587	9.670792	1.3766937
-0.035079956	9.670792	1.3695221
-0.039855957	9.668396	1.3742981
-0.042251587	9.670792	1.3695221
-0.044647217	9.675583	1.352768
-0.051818848	9.6827545	1.3432007
-0.056610107	9.6827545	1.3360138
-0.061401367	9.680359	1.3288422
-0.06617737	9.6827545	1.3216553
-0.06617737	9.6827545	1.3168793
-0.06617737	9.6827545	1.3192749
-0.06617737	9.6827545	1.3216553
-0.06378174	9.6827545	1.3240509
-0.061401367	9.6827545	1.3336182
-0.06378174	9.68515	1.340805
-0.068573	9.680359	1.3479767
-0.061401367	9.677963	1.3647308
-0.059005737	9.675583	1.381485
-0.061401367	9.675583	1.3958435
-0.06617737	9.673187	1.4125824
-0.06378174	9.670792	1.4389038
-0.056610107	9.670792	1.455658
-0.051818848	9.670792	1.4628296
-0.047042847	9.666	1.4628296
-0.042251587	9.668396	1.4460907
-0.047042847	9.673187	1.4173737
-0.051818848	9.673187	1.4006195
-0.044647217	9.670792	1.4054108
-0.044647217	9.670792	1.4125824
-0.044647217	9.670792	1.4245453
-0.042251587	9.666	1.4484863
-0.047042847	9.661224	1.4676208
-0.047042847	9.661224	1.4652252
-0.047042847	9.661224	1.4484863
-0.051818848	9.666	1.4293365
-0.056610107	9.668396	1.4125824
-0.06378174	9.668396	1.410202
-0.06378174	9.670792	1.414978
-0.051818848	9.670792	1.4173737
-0.044647217	9.668396	1.4173737
-0.044647217	9.666	1.4125824
-0.042251587	9.670792	1.414978
-0.042251587	9.668396	1.414978
-0.051818848	9.670792	1.4125824
-0.051818848	9.673187	1.4054108
-0.049438477	9.670792	1.4054108
-0.051818848	9.668396	1.4125824
-0.054214478	9.668396	1.4078064
-0.054214478	9.666	1.4078064
-0.049438477	9.666	1.414978
-0.047042847	9.66362	1.4197693
-0.049438477	9.661224	1.4245453
-0.047042847	9.658829	1.4293365
-0.051818848	9.658829	1.4365082
-0.054214478	9.658829	1.4389038
-0.056610107	9.661224	1.4197693
-0.06378174	9.666	1.3934479
-0.07096863	9.673187	1.3623352
-0.07574463	9.680359	1.3192749
-0.07814026	9.6827545	1.2881622
-0.07574463	9.6827545	1.2714081
-0.08053589	9.680359	1.278595
-0.08053589	9.680359	1.2953339
-0.07814026	9.680359	1.3072968
-0.07574463	9.680359	1.3216553
-0.061401367	9.675583	1.3479767
-0.051818848	9.668396	1.3695221
-0.051818848	9.668396	1.3838806
-0.054214478	9.668396	1.3838806
-0.061401367	9.668396	1.3742981
-0.068573	9.673187	1.3695221
-0.07574463	9.677963	1.3575592
-0.08293152	9.680359	1.340805
-0.08532715	9.680359	1.3240509
-0.08293152	9.6827545	1.312088
-0.07814026	9.68515	1.2977295
-0.07096863	9.68515	1.2857666
-0.056610107	9.6827545	1.2881622
-0.051818848	9.687546	1.2857666
-0.044647217	9.68515	1.2761993
-0.047042847	9.6827545	1.283371
-0.044647217	9.6827545	1.283371
-0.047042847	9.68515	1.2690125
-0.054214478	9.687546	1.2522736
-0.056610107	9.687546	1.2403107
-0.059005737	9.689941	1.2307281
-0.056610107	9.692322	1.2331238
-0.056610107	9.692322	1.2450867
-0.056610107	9.692322	1.2594452
-0.059005737	9.692322	1.2690125
-0.061401367	9.687546	1.2809753
-0.06617737	9.687546	1.2857666
-0.068573	9.689941	1.2881622
-0.06617737	9.689941	1.2977295
-0.06617737	9.689941	1.3001251
-0.06378174	9.687546	1.2929535
-0.059005737	9.68515	1.3001251
-0.056610107	9.680359	1.3096924
-0.061401367	9.680359	1.3072968
-0.06617737	9.6827545	1.312088
-0.059005737	9.68515	1.3240509
-0.051818848	9.6827545	1.340805
-0.044647217	9.677963	1.3695221
-0.032684326	9.677963	1.386261
-0.027893066	9.675583	1.3982239
-0.023117065	9.675583	1.3982239
-0.030288696	9.675583	1.3910522
-0.037460327	9.675583	1.3671265
-0.051818848	9.677963	1.3288422
-0.07574463	9.6827545	1.2929535
-0.08532715	9.687546	1.2618408
-0.09010315	9.689941	1.2355194
-0.09729004	9.694717	1.2187653
-0.09489441	9.697113	1.2211609
-0.08293152	9.689941	1.2474823
-0.07096863	9.689941	1.2881622
-0.06617737	9.6827545	1.3192749
-0.054214478	9.677963	1.3575592
-0.049438477	9.673187	1.4006195
-0.039855957	9.66362	1.4293365
-0.044647217	9.66362	1.4221649
-0.049438477	9.670792	1.3934479
-0.06378174	9.675583	1.3551636
-0.068573	9.680359	1.3072968
-0.07336426	9.68515	1.2570496
-0.09249878	9.692322	1.2068024
-0.10446167	9.699509	1.1613464
-0.1068573	9.704285	1.1254425
-0.10446167	9.70668	1.0967407
-0.10446167	9.709076	1.0847778
-0.09729004	9.70668	1.0967407
-0.08532715	9.704285	1.1206665
-0.08053589	9.699509	1.1517639
-0.07574463	9.699509	1.175705
-0.068573	9.694717	1.1900482
-0.06378174	9.694717	1.2187653
-0.06617737	9.692322	1.2283325
-0.07336426	9.694717	1.2163696
-0.07814026	9.697113	1.2020264
-0.08053589	9.699509	1.1780853
-0.08772278	9.701904	1.1637268
-0.10206604	9.701904	1.139801
-0.10446167	9.704285	1.1158752
-0.10446167	9.70668	1.1158752
-0.10446167	9.709076	1.1230621
-0.09968567	9.704285	1.1374054
-0.08532715	9.699509	1.1661224
-0.07574463	9.697113	1.1828766
-0.06617737	9.694717	1.1780853
-0.07096863	9.697113	1.1685181
-0.07336426	9.701904	1.1517639
-0.068573	9.704285	1.1254425
-0.07574463	9.709076	1.0967407
-0.08532715	9.709076	1.0847778
-0.09489441	9.711472	1.0704193
-0.09729004	9.713867	1.0584564
-0.09249878	9.716263	1.0512695
-0.08532715	9.716263	1.0512695
-0.07814026	9.713867	1.0560608
-0.07336426	9.713867	1.0536652
-0.07574463	9.711472	1.0536652
-0.08053589	9.709076	1.0584564
-0.08532715	9.70668	1.0751953
-0.09010315	9.70668	1.0680237
-0.09010315	9.711472	1.0560608
-0.09010315	9.711472	1.0488739
-0.08772278	9.713867	1.0345154
-0.08532715	9.716263	1.0129852
-0.08293152	9.716263	0.9986267
-0.08053589	9.713867	0.98905945
-0.07574463	9.718643	0.98187256
-0.07574463	9.718643	0.98905945
-0.08053589	9.716263	0.9962311
-0.08532715	9.718643	0.9914551
-0.09249878	9.718643	0.98905945
-0.09968567	9.718643	0.9866638
-0.10925293	9.716263	0.9675293
-0.11164856	9.718643	0.9459839
-0.11404419	9.721039	0.934021
-0.11404419	9.721039	0.9220581
-0.1068573	9.72583	0.91726685
-0.1068573	9.72583	0.91726685
-0.10925293	9.723434	0.9196625
-0.11164856	9.723434	0.9196625
-0.11404419	9.721039	0.91726685
-0.10925293	9.721039	0.92445374
-0.1068573	9.721039	0.9483795
-0.1068573	9.721039	0.95555115
-0.10206604	9.723434	0.9531708
-0.10446167	9.721039	0.95077515
-0.11164856	9.721039	0.9412079
-0.11404419	9.721039	0.92445374
-0.11164856	9.723434	0.90530396
-0.11404419	9.72583	0.88856506
-0.11404419	9.72583	0.8766022
-0.11164856	9.72583	0.8694153
-0.10925293	9.728226	0.8694153
-0.10925293	9.728226	0.86701965
-0.10446167	9.728226	0.8694153
-0.10206604	9.72583	0.87420654
-0.10206604	9.721039	0.8813782
-0.09729004	9.718643	0.90530396
-0.09729004	9.721039	0.9148865
-0.10206604	9.721039	0.9196625
-0.10925293	9.718643	0.93162537
-0.11404419	9.716263	0.9412079
-0.11642456	9.718643	0.95077515
-0.12121582	9.716263	0.95555115
-0.12121582	9.721039	0.9459839
-0.11882019	9.721039	0.93881226
-0.11642456	9.718643	0.95077515
-0.11164856	9.716263	0.96273804
-0.10925293	9.716263	0.9747009
-0.11164856	9.713867	0.9794922
-0.10925293	9.716263	0.9794922
-0.10925293	9.721039	0.9794922
-0.11164856	9.721039	0.9842682
-0.11164856	9.718643	0.98905945
-0.10925293	9.718643	0.9938507
-0.11404419	9.716263	1.0153809
-0.11404419	9.713867	1.0393066
-0.11404419	9.711472	1.0608368
-0.11882019	9.709076	1.0680237
-0.11642456	9.711472	1.065628
-0.11642456	9.711472	1.0464783
-0.12121582	9.716263	1.0201721
-0.12361145	9.718643	0.9938507
-0.12361145	9.718643	0.9794922
-0.12600708	9.716263	0.9866638
-0.12361145	9.713867	1.0129852
-0.11164856	9.709076	1.0536652
-0.10925293	9.704285	1.0943451
-0.10446167	9.701904	1.1254425
-0.09968567	9.699509	1.1469879
-0.10206604	9.694717	1.1661224
-0.10206604	9.697113	1.1685181
-0.10446167	9.701904	1.1589508
-0.1068573	9.704285	1.135025
-0.1068573	9.709076	1.1158752
-0.11164856	9.711472	1.1015167
-0.10206604	9.713867	1.0895538
-0.10206604	9.713867	1.0799866
-0.09968567	9.713867	1.0704193
-0.09729004	9.716263	1.0560608
-0.09729004	9.716263	1.0488739
-0.10206604	9.716263	1.0512695
-0.10925293	9.721039	1.0560608
-0.11164856	9.721039	1.0632324
-0.11164856	9.723434	1.0680237
-0.11164856	9.721039	1.065628
-0.10446167	9.721039	1.065628
-0.09968567	9.716263	1.077591
-0.09968567	9.709076	1.106308
-0.10206604	9.701904	1.1421967
-0.1068573	9.697113	1.1876678
-0.10925293	9.689941	1.2259521
-0.1068573	9.68515	1.283371
-0.09010315	9.675583	1.3671265
-0.068573	9.66362	1.4389038
-0.06378174	9.656433	1.4771881
-0.061401367	9.656433	1.4915466
-0.06378174	9.656433	1.484375
-0.07096863	9.658829	1.4604492
-0.07814026	9.66362	1.414978
-0.08293152	9.670792	1.3695221
-0.08532715	9.677963	1.3168793
-0.08772278	9.68515	1.2618408
-0.09249878	9.692322	1.2068024
-0.09489441	9.699509	1.1517639
-0.09968567	9.704285	1.106308
-0.10206604	9.70668	1.0704193
-0.1068573	9.709076	1.0393066
-0.10446167	9.709076	1.0201721
-0.09968567	9.709076	1.0129852
-0.09729004	9.711472	1.0010223
-0.09729004	9.713867	0.9962311
-0.09729004	9.713867	1.0010223
-0.10206604	9.709076	1.0129852
-0.09729004	9.70668	1.036911
-0.10206604	9.70668	1.0512695
-0.09968567	9.704285	1.0632324
-0.09249878	9.701904	1.0919495
-0.08772278	9.701904	1.1182709
-0.09489441	9.699509	1.1230621
-0.09729004	9.699509	1.1206665
-0.10206604	9.699509	1.1182709
-0.09968567	9.701904	1.1087036
-0.10446167	9.704285	1.0967407
-0.10206604	9.709076	1.077591
-0.09968567	9.711472	1.0704193
-0.09729004	9.709076	1.0704193
-0.09489441	9.711472	1.0608368
-0.09489441	9.713867	1.0488739
-0.09729004	9.711472	1.0440979
-0.09968567	9.711472	1.0345154
-0.10446167	9.716263	1.0201721
-0.10206604	9.716263	1.0153809
-0.10446167	9.713867	1.0153809
-0.10206604	9.716263	1.0058136
-0.09729004	9.716263	0.9986267
-0.09489441	9.713867	1.0058136
-0.09249878	9.713867	1.0153809
-0.09249878	9.711472	1.0225525
-0.09249878	9.711472	1.0273438
-0.09010315	9.711472	1.0201721
-0.09010315	9.713867	1.0105896
-0.09489441	9.713867	1.0010223
-0.09729004	9.713867	0.98905945
-0.10206604	9.711472	0.98187256
-0.09968567	9.716263	0.9675293
-0.09968567	9.718643	0.95555115
-0.10206604	9.718643	0.93881226
-0.10446167	9.718643	0.92445374
-0.10925293	9.72583	0.90052795
-0.10925293	9.728226	0.88616943
-0.10446167	9.728226	0.8813782
-0.10206604	9.730606	0.8718109
-0.10446167	9.733002	0.8574524
-0.10206604	9.735397	0.8574524
-0.09249878	9.733002	0.8718109
-0.08532715	9.728226	0.90052795
-0.07814026	9.72583	0.92684937
-0.07574463	9.72583	0.92684937
-0.08053589	9.728226	0.9220581
-0.08532715	9.72583	0.9148865
-0.09010315	9.723434	0.9148865
-0.09489441	9.723434	0.91249084
-0.09729004	9.72583	0.90530396
-0.1068573	9.723434	0.90052795
-0.10446167	9.721039	0.8957367
-0.10446167	9.721039	0.89094543
-0.10206604	9.723434	0.8813782
-0.10446167	9.72583	0.8837738
-0.10446167	9.728226	0.8837738
-0.09489441	9.728226	0.8981323
-0.09249878	9.723434	0.92684937
-0.08772278	9.723434	0.95077515
-0.08293152	9.721039	0.9675293
-0.08293152	9.718643	0.97709656
-0.08293152	9.713867	0.98905945
-0.08532715	9.713867	0.9914551
-0.08532715	9.713867	0.9842682
-0.09729004	9.713867	0.98905945
-0.09729004	9.711472	0.98905945
-0.10446167	9.713867	0.96990967
-0.10925293	9.713867	0.95077515
-0.10446167	9.718643	0.9412079
-0.11164856	9.716263	0.93881226
-0.10925293	9.718643	0.934021
-0.1068573	9.721039	0.92922974
-0.1068573	9.723434	0.93162537
-0.09968567	9.723434	0.9483795
-0.10206604	9.718643	0.9675293
-0.09729004	9.716263	0.98187256
-0.09968567	9.716263	0.9938507
-0.10206604	9.713867	1.003418
-0.10206604	9.709076	1.0129852
-0.10206604	9.704285	1.0225525
-0.10206604	9.70668	1.0249481
-0.10446167	9.70668	1.0345154
-0.10446167	9.709076	1.032135
-0.1068573	9.70668	1.0417023
-0.11164856	9.70668	1.0488739
-0.11164856	9.704285	1.0608368
-0.11642456	9.70668	1.065628
-0.12121582	9.70668	1.0488739
-0.12361145	9.70668	1.032135
-0.13078308	9.709076	1.0058136
-0.13078308	9.713867	0.9794922
-0.12838745	9.716263	0.96273804
-0.12600708	9.718643	0.9579468
-0.12121582	9.716263	0.96513367
-0.12361145	9.713867	0.9842682
-0.12600708	9.711472	1.003418
-0.12600708	9.709076	1.0273438
-0.13078308	9.704285	1.0512695
-0.13078308	9.704285	1.065628
-0.13078308	9.704285	1.0704193
-0.13078308	9.70668	1.077591
-0.12600708	9.70668	1.0799866
-0.12121582	9.70668	1.0823822
-0.1068573	9.709076	1.0895538
-0.09968567	9.711472	1.1015167
-0.09968567	9.709076	1.1230621
-0.1068573	9.704285	1.1565552
-0.11164856	9.699509	1.1828766
-0.11882019	9.699509	1.1948395
-0.11642456	9.697113	1.2020264
-0.11642456	9.692322	1.2068024
-0.11642456	9.692322	1.209198
-0.11404419	9.694717	1.2044067
-0.1068573	9.699509	1.1972351
-0.10446167	9.697113	1.1900482
-0.10925293	9.694717	1.1924438
-0.11404419	9.692322	1.2068024
-0.12361145	9.694717	1.2139893
-0.13078308	9.697113	1.2068024
-0.13796997	9.697113	1.2044067
-0.14274597	9.699509	1.1900482
-0.14274597	9.701904	1.1661224
-0.13557434	9.704285	1.135025
-0.13078308	9.709076	1.1158752
-0.13317871	9.709076	1.1110992
-0.13078308	9.709076	1.1134796
-0.13557434	9.70668	1.1278381
-0.1451416	9.704285	1.1421967
-0.14993286	9.704285	1.1565552
-0.14993286	9.701904	1.1661224
-0.15232849	9.701904	1.1780853
-0.14753723	9.701904	1.180481
-0.1451416	9.699509	1.1852722
-0.14274597	9.697113	1.1900482
-0.13796997	9.704285	1.180481
-0.13078308	9.70668	1.1637268
-0.13078308	9.70668	1.1565552
-0.13317871	9.70668	1.1565552
-0.13796997	9.70668	1.1541595
-0.14753723	9.701904	1.1541595
-0.15232849	9.701904	1.1589508
-0.15950012	9.70668	1.1589508
-0.16189575	9.70668	1.1517639
-0.16429138	9.699509	1.1493835
-0.16667175	9.68515	1.1517639
-0.19778442	9.713867	1.1972351
-0.17146301	9.728226	1.1565552
-0.15950012	9.737793	1.1134796
-0.14993286	9.744965	1.0871582
-0.14753723	9.740189	1.0680237
-0.13796997	9.740189	1.0417023
-0.13317871	9.740189	1.0177765
-0.13317871	9.740189	0.9938507
-0.13078308	9.744965	0.9579468
-0.12121582	9.74736	0.91726685
-0.12361145	9.74736	0.90530396
-0.13317871	9.742569	0.9029236
-0.1451416	9.735397	0.9100952
-0.15710449	9.730606	0.92445374
-0.16189575	9.733002	0.9148865
-0.15470886	9.733002	0.8981323
-0.15470886	9.733002	0.88616943
-0.14993286	9.733002	0.8766022
-0.14993286	9.733002	0.86701965
-0.14274597	9.733002	0.86224365
-0.13796997	9.733002	0.85505676
-0.13796997	9.735397	0.84788513
-0.1403656	9.733002	0.8454895
-0.14274597	9.733002	0.8383026
-0.14274597	9.733002	0.8215637
-0.14274597	9.735397	0.80960083
-0.1451416	9.735397	0.8072052
-0.14753723	9.733002	0.8048096
-0.14993286	9.735397	0.8048096
-0.1451416	9.733002	0.80241394
-0.1403656	9.733002	0.7952423
-0.14274597	9.730606	0.8000183
-0.1403656	9.728226	0.8048096
-0.1403656	9.730606	0.80960083
-0.13796997	9.735397	0.81199646
-0.1403656	9.735397	0.81437683
-0.14274597	9.735397	0.81437683
-0.14993286	9.730606	0.81199646
-0.15710449	9.72583	0.81199646
-0.15470886	9.72583	0.8000183
-0.14993286	9.730606	0.78567505
-0.14753723	9.730606	0.7736969
-0.14274597	9.730606	0.76412964
-0.1451416	9.735397	0.756958
-0.1451416	9.733002	0.75935364
-0.14274597	9.730606	0.756958
-0.1451416	9.733002	0.7545624
-0.14274597	9.733002	0.7497711
-0.14274597	9.733002	0.7425995
-0.1451416	9.733002	0.7378082
-0.14993286	9.733002	0.7378082
-0.15470886	9.730606	0.7234497
-0.14753723	9.733002	0.6827698
-0.13557434	9.735397	0.6444855
-0.12600708	9.737793	0.6038208
-0.10925293	9.737793	0.56074524
-0.1068573	9.737793	0.52723694
-0.10446167	9.737793	0.49853516
-0.09968567	9.740189	0.47459412
-0.09729004	9.737793	0.44589233
-0.09729004	9.742569	0.40281677
-0.09968567	9.744965	0.3669281
-0.09968567	9.744965	0.32624817
-0.09489441	9.744965	0.28556824
-0.09249878	9.742569	0.24249268
-0.09968567	9.740189	0.19943237
-0.1068573	9.735397	0.15875244
-0.10206604	9.733002	0.12284851
-0.07574463	9.735397	0.07978821
-0.09010315	9.764114	0.005615234
-0.068573	9.76889	-0.11642456
-0.07336426	9.773682	-0.18821716
-0.059005737	9.764114	-0.21214294
-0.061401367	9.754547	-0.23606873
-0.051818848	9.737793	-0.27674866
-0.06617737	9.7521515	-0.33895874
-0.051818848	9.74736	-0.38442993
-0.006362915	9.737793	-0.3820343
-0.020721436	9.7569275	-0.3557129
-0.020721436	9.74736	-0.36528015
-0.037460327	9.742569	-0.36767578
-0.042251587	9.728226	-0.37963867
-0.037460327	9.72583	-0.43945312
-0.023117065	9.721039	-0.54953
-0.006362915	9.721039	-0.64523315
0.005599976	9.721039	-0.7002716
0.039108276	9.687546	-0.7505188
-0.020721436	9.713867	-0.7840271
-0.1451416	9.704285	-0.8079529
-0.08772278	9.615753	-0.83906555
0.07739258	9.618149	-0.98501587
0.07739258	9.610977	-1.1142273
0.058242798	9.627716	-1.1812286
0.055847168	9.646866	-1.2362671
0.053466797	9.610977	-1.3200226
0.046279907	9.60379	-1.4181213
0.036712646	9.610977	-1.5186157
0.055847168	9.567902	-1.5856171
0.015182495	9.575073	-1.6502228
-0.027893066	9.527222	-1.7172241
-0.042251587	9.512863	-1.7842255
-0.047042847	9.488937	-1.8440399
-0.049438477	9.465012	-1.9062653
-0.054214478	9.450653	-1.9780426
-0.056610107	9.453049	-2.0594025
-0.056610107	9.429123	-2.1383667
-0.051818848	9.4075775	-2.2197113
-0.049438477	9.388443	-2.3034668
-0.054214478	9.393219	-2.3848267
-0.06378174	9.386047	-2.456604
-0.09249878	9.338196	-2.497284
-0.08053589	9.326233	-2.5092468
-0.10925293	9.292725	-2.5786438
-0.11642456	9.244873	-2.7389526
-0.13078308	9.180267	-2.8729553
-0.12121582	9.158722	-2.9567108
-0.12121582	9.15155	-3.0452423
-0.11404419	9.120438	-3.1313782
-0.11164856	9.082153	-3.2199097
-0.10925293	9.058228	-3.3084564
-0.11642456	9.02713	-3.396988
-0.12600708	8.998413	-3.466385
-0.07336426	9.058228	-3.5812378
-0.08772278	9.010376	-3.6434479
-0.09729004	8.972092	-3.7248077
-0.09729004	8.9266205	-3.808548
-0.11882019	8.8524475	-3.8899078
-0.068573	8.857239	-3.9784393
-0.08772278	8.771088	-4.0286865
-0.10446167	8.687347	-4.105255
-0.08293152	8.672989	-4.2201233
-0.10206604	8.613159	-4.325409
-0.11404419	8.550949	-4.3971863
-0.07096863	8.572479	-4.535965
-0.07814026	8.479172	-4.6436462
-0.08293152	8.409775	-4.7752533
-0.054214478	8.385849	-4.930786
-0.061401367	8.306885	-5.0217133
-0.07336426	8.235092	-5.119812
-0.16189575	8.306885	-5.052826
-0.20497131	8.314056	-5.1413574
-0.15950012	8.158524	-5.349533
-0.06617737	7.9982147	-5.588806
0.010391235	7.8498535	-5.7491302
0.010391235	7.732605	-5.796982
0.005599976	7.6536407	-5.842453
0.015182495	7.5938263	-5.926193
0.012786865	7.536392	-6.019516
0.012786865	7.4717865	-6.1080475
0.010391235	7.407181	-6.17984
0.010391235	7.3473663	-6.24205
0.019958496	7.273178	-6.316223
0.027145386	7.199005	-6.4071503
0.029525757	7.115265	-6.517227
0.048675537	7.0650024	-6.6296844
0.051071167	7.0123596	-6.7110443
0.039108276	6.959717	-6.7612915
0.010391235	6.923828	-6.7732544
-0.037460327	6.8352966	-6.799576
-0.039855957	6.7850494	-6.8546143
-0.049438477	6.741974	-6.8833313
-0.12600708	6.6701965	-6.94075
-0.14274597	6.6199493	-6.9383698
-0.17385864	6.557724	-6.9742584
-0.1834259	6.4811554	-7.038864
-0.1906128	6.3878326	-7.101074
-0.20974731	6.306488	-7.182434
-0.2336731	6.2227325	-7.2494354
-0.26239014	6.12941	-7.314041
-0.28153992	6.055237	-7.34993
-0.3054657	5.973877	-7.3858185
-0.30786133	5.8901367	-7.4671783
-0.23129272	5.801605	-7.479141
-0.21931458	5.6915283	-7.6203156
-0.13796997	5.583847	-7.7519226
-0.054214478	5.464203	-7.876343
-0.018325806	5.28714	-8.06778
0.012786865	5.1866455	-8.208954
8.24E-04	5.086151	-8.263992
-0.023117065	5.02153	-8.3142395
-0.08053589	4.9952087	-8.29509
-0.14753723	4.9736786	-8.247238
-0.17385864	4.9066772	-8.256805
-0.19299316	4.799011	-8.333374
-0.19778442	4.6889343	-8.371658
-0.18103027	4.5860443	-8.412338
-0.1953888	4.4711914	-8.450623
-0.21214294	4.38266	-8.464981
-0.20257568	4.2773743	-8.484131
-0.20257568	4.0691986	-8.555908
-0.18103027	4.01416	-8.610947
-0.2169342	3.9615173	-8.670761
-0.28153992	3.8466644	-8.749725
-0.35092163	3.7940216	-8.802368
-0.36528015	3.6336975	-8.871765
-0.34375	3.4638062	-8.9674835
-0.32699585	3.2891388	-9.0416565
-0.33418274	3.0450592	-9.130188
-0.32699585	2.891922	-9.204361
-0.32221985	2.7985992	-9.237869
-0.3174286	2.6981049	-9.319229
-0.30307007	2.549759	-9.414932
-0.26239014	2.4157562	-9.491501
-0.24085999	2.3343964	-9.527405
-0.23846436	2.1980133	-9.565689
-0.2336731	2.0879364	-9.577652
-0.24085999	2.004181	-9.544144
-0.25759888	1.9060822	-9.541748
-0.25282288	1.8055878	-9.522614
-0.24563599	1.7218323	-9.541748
-0.2288971	1.6261292	-9.563293
-0.22410583	1.5016937	-9.594391
-0.1834259	1.4466553	-9.615936
-0.16906738	1.3533325	-9.692505
-0.17146301	1.2360992	-9.752319
-0.1953888	1.1355896	-9.773865
-0.20974731	1.030304	-9.781036
-0.2288971	0.94177246	-9.783432
-0.24563599	0.86520386	-9.788223
-0.26478577	0.78863525	-9.785828
-0.27674866	0.73838806	-9.73558
-0.2839203	0.70010376	-9.661392
-0.27435303	0.6378937	-9.725998
-0.24803162	0.57806396	-9.759506
-0.26478577	0.5110626	-9.752319
-0.26239014	0.4416809	-9.795395
-0.26478577	0.38424683	-9.809753
-0.26239014	0.3435669	-9.814529
-0.25759888	0.30288696	-9.819321
-0.24803162	0.2669983	-9.824112
-0.24325562	0.23828125	-9.828888
-0.24803162	0.20718384	-9.826508
-0.24563599	0.15931702	-9.814529
-0.25282288	0.10429382	-9.792999
-0.25282288	0.06121826	-9.785828
-0.2552185	0.03010559	-9.778641
-0.25042725	0.00617981	-9.776245
-0.26478577	-0.077560425	-9.7690735
-0.25282288	-0.091918945	-9.766678
-0.2935028	-0.082351685	-9.754715
-0.32221985	-0.07518005	-9.752319
-0.31982422	-0.046463013	-9.749924
-0.29110718	-0.039276123	-9.752319
-0.2719574	-0.051254272	-9.766678
-0.28153992	-0.065597534	-9.757111
-0.28631592	-0.079956055	-9.749924
-0.2839203	-0.096710205	-9.749924
-0.2935028	-0.115859985	-9.737961
-0.30786133	-0.13259888	-9.721222
-0.3365631	-0.15174866	-9.675751
-0.35810852	-0.16371155	-9.658997
-0.34135437	-0.20199585	-9.6996765
-0.2935028	-0.12782288	-9.754715
-0.26957703	-0.084747314	-9.778641
-0.29110718	-0.12063599	-9.728394
-0.28153992	-0.12542725	-9.728394
-0.26239014	-0.106277466	-9.747543
-0.25759888	-0.111068726	-9.742752
-0.2552185	-0.11824036	-9.737961
-0.25042725	-0.103881836	-9.740356
-0.23846436	-0.108673096	-9.725998
-0.24085999	-0.111068726	-9.721222
-0.23606873	-0.108673096	-9.721222
-0.2336731	-0.108673096	-9.721222
-0.2336731	-0.111068726	-9.718826
-0.23129272	-0.113464355	-9.718826
-0.21704102	-0.11514282	-9.706985
-0.2078247	-0.12063599	-9.703506
-0.20687866	-0.12147522	-9.716431
-0.20628357	-0.12554932	-9.717514
-0.20532227	-0.12745667	-9.718353
-0.20722961	-0.13044739	-9.720032
-0.20544434	-0.12626648	-9.715836
-0.20388794	-0.12350464	-9.70459
-0.20484924	-0.12602234	-9.699921
-0.20401001	-0.13163757	-9.71344
-0.20413208	-0.13200378	-9.724686
-0.2046051	-0.13356018	-9.724442
-0.20149231	-0.13368225	-9.712128
-0.20198059	-0.13056946	-9.7031555
-0.20233154	-0.13427734	-9.713913
-0.20388794	-0.13571167	-9.724564
-0.20317078	-0.13212585	-9.730316
-0.20388794	-0.1292572	-9.733063
-0.20413208	-0.12948608	-9.734268
-0.20210266	-0.13356018	-9.726364
-0.20198059	-0.13475037	-9.713684
-0.2029419	-0.13223267	-9.710922
-0.20126343	-0.13284302	-9.724442
-0.20137024	-0.13368225	-9.730316
-0.20317078	-0.13200378	-9.732819
-0.20376587	-0.13020325	-9.73378
-0.20173645	-0.13319397	-9.733063
-0.20185852	-0.1355896	-9.718826
-0.19958496	-0.1340332	-9.7108
-0.20137024	-0.13391113	-9.716904
-0.20101929	-0.1340332	-9.724808
-0.20101929	-0.13272095	-9.731262
-0.19659424	-0.11764526	-9.736176
-0.20448303	-0.11824036	-9.725159
-0.2103424	-0.115982056	-9.7079315
-0.21476746	-0.11872864	-9.713684
-0.26226807	-0.1504364	-9.7322235
-0.30187988	-0.247818	-9.747543
-0.3462677	-0.5710907	-9.773987
-0.40034485	-1.6135254	-9.632797
-0.5033417	-3.0098572	-9.277344
-0.61868286	-4.4208984	-8.691711
-0.6438141	-6.0976715	-7.5091705
-0.40524292	-7.717499	-5.8737946
-0.28440857	-8.823456	-4.064102
-0.29637146	-9.475021	-2.201416
-0.34674072	-9.705688	-0.89097595
-0.34172058	-9.7612	-0.5924835
-0.29995728	-9.771606	-0.19766235
-0.30104065	-9.775085	0.21737671
-0.29229736	-9.768616	0.38128662
-0.2858429	-9.770767	0.3261261
-0.2937317	-9.755936	0.6659088
-0.28823853	-9.7426605	0.8590088
-0.3013916	-9.743851	0.8326874
-0.29577637	-9.749832	0.7747803
-0.29385376	-9.753784	0.7872162
-0.2929077	-9.756058	0.81929016
-0.28500366	-9.757492	0.79763794
-0.286438	-9.759766	0.7836304
-0.2833252	-9.761673	0.7330322
-0.29014587	-9.762634	0.74642944
-0.29577637	-9.75737	0.7906952
-0.29743958	-9.754028	0.8019409
-0.29229736	-9.750793	0.872406
-0.28907776	-9.751633	0.8812561
-0.28631592	-9.750198	0.8764801
-0.28512573	-9.75235	0.8274231
-0.28512573	-9.756424	0.8099518
-0.2853546	-9.752716	0.82107544
-0.2858429	-9.752594	0.8086395
-0.28356934	-9.754272	0.8140259
-0.28285217	-9.756775	0.83029175
-0.2827301	-9.758453	0.8222809
-0.2817688	-9.754272	0.82766724
-0.27938843	-9.7552185	0.80181885
-0.2817688	-9.755814	0.81007385
-0.282135	-9.75354	0.8046875
-0.2827301	-9.755341	0.802536
-0.28248596	-9.753433	0.8052826
-0.27793884	-9.751633	0.8005066
-0.27783203	-9.750916	0.8262329
-0.27781677	-9.751633	0.85050964
-0.2754364	-9.753662	0.8417816
-0.28297424	-9.754868	0.79930115
-0.27687073	-9.752472	0.81103516
-0.2802124	-9.754028	0.76293945
-0.27793884	-9.756775	0.769516
-0.27830505	-9.757736	0.7726288
-0.27781677	-9.753906	0.8062439
-0.27578735	-9.756897	0.8216858
-0.27723694	-9.757858	0.8155823
-0.2796173	-9.758331	0.7740631
-0.2796173	-9.760605	0.76293945
-0.27566528	-9.727219	1.1005707
-0.28404236	-9.671585	1.5651245
-0.31695557	-9.607468	1.9423676
-0.3655243	-9.447861	2.573822
-0.24731445	-8.926102	3.975296
-0.3396759	-8.11734	5.453949
-0.28907776	-7.1862793	6.6483154
-0.29122925	-6.325699	7.513214
-0.2552185	-5.5889587	8.03772
-0.20126343	-4.4790497	8.720993
-0.25090027	-3.4557495	9.230057
-0.19432068	-2.4979095	9.484543
-0.17637634	-1.5788269	9.683258
-0.13832092	-0.7891998	9.833298
-0.13520813	-0.27223206	9.849075
-0.21118164	-0.056747437	9.854584
-0.14956665	-0.029708862	9.828857
-0.16607666	-0.023010254	9.81546
-0.1695404	-0.024215698	9.810684
-0.16931152	-0.02671814	9.807083
-0.17015076	-0.02923584	9.80542
-0.17002869	-0.02204895	9.815826
-0.1647644	-0.012359619	9.836517
-0.16619873	-0.019897461	9.846817
-0.18569946	-0.034973145	9.836166
-0.19921875	-0.037368774	9.833527
-0.20257568	-0.040359497	9.831009
-0.20724487	-0.044555664	9.826828
-0.20497131	-0.048858643	9.835327
-0.20497131	-0.046463013	9.818573
-0.20497131	-0.044067383	9.823364
-0.20497131	-0.046463013	9.82814
-0.20735168	-0.044067383	9.830536
-0.20735168	-0.044067383	9.830536
-0.20974731	-0.046463013	9.830536
-0.20974731	-0.046463013	9.8329315
-0.20735168	-0.044067383	9.8329315
-0.20735168	-0.041671753	9.825745
-0.1953888	-0.044067383	9.82814
-0.1906128	-0.041671753	9.823364
-0.1906128	-0.044067383	9.820969
-0.19299316	-0.044067383	9.823364
-0.1906128	-0.044067383	9.823364
-0.19299316	-0.041671753	9.82814
-0.1953888	-0.039276123	9.830536
-0.19778442	-0.039276123	9.835327
-0.19778442	-0.039276123	9.837723
-0.19778442	-0.039276123	9.840103
-0.19778442	-0.036895752	9.842499
-0.19778442	-0.039276123	9.844894
-0.19778442	-0.039276123	9.844894
-0.19778442	-0.039276123	9.844894
-0.20018005	-0.039276123	9.84729
-0.19778442	-0.039276123	9.849686
-0.19778442	-0.039276123	9.84729
-0.19778442	-0.039276123	9.84729
-0.19778442	-0.039276123	9.84729
-0.20018005	-0.039276123	9.849686
-0.20018005	-0.039276123	9.852066
-0.20018005	-0.041671753	9.854462
-0.20018005	-0.041671753	9.854462
-0.20257568	-0.044067383	9.856857
-0.20018005	-0.041671753	9.856857
-0.20018005	-0.039276123	9.854462
-0.20018005	-0.036895752	9.854462
-0.20018005	-0.036895752	9.852066
-0.20018005	-0.036895752	9.854462
-0.20018005	-0.036895752	9.854462
-0.20018005	-0.034500122	9.852066
-0.20018005	-0.034500122	9.849686
-0.20018005	-0.034500122	9.852066
-0.20018005	-0.036895752	9.852066
-0.20018005	-0.036895752	9.849686
-0.20018005	-0.036895752	9.84729
-0.20257568	-0.039276123	9.84729
-0.20018005	-0.036895752	9.844894
-0.20018005	-0.036895752	9.842499
-0.20018005	-0.039276123	9.842499
-0.20018005	-0.041671753	9.840103
-0.20018005	-0.039276123	9.840103
-0.20018005	-0.036895752	9.840103
-0.19778442	-0.036895752	9.840103
-0.20018005	-0.036895752	9.837723
-0.20018005	-0.036895752	9.837723
-0.20018005	-0.036895752	9.840103
-0.19778442	-0.034500122	9.837723
-0.19778442	-0.036895752	9.837723
-0.20018005	-0.036895752	9.837723
-0.19778442	-0.034500122	9.837723
-0.1953888	-0.032104492	9.840103
-0.19778442	-0.034500122	9.837723
-0.19778442	-0.036895752	9.837723
-0.19778442	-0.034500122	9.837723
-0.19778442	-0.034500122	9.837723
-0.19778442	-0.036895752	9.840103
-0.19778442	-0.034500122	9.840103
-0.19778442	-0.036895752	9.840103
-0.20018005	-0.036895752	9.842499
-0.19778442	-0.036895752	9.844894
-0.20018005	-0.036895752	9.844894
-0.20018005	-0.036895752	9.84729
-0.19778442	-0.034500122	9.84729
-0.19778442	-0.034500122	9.849686
-0.19778442	-0.034500122	9.849686
-0.1953888	-0.036895752	9.852066
-0.1953888	-0.039276123	9.852066
-0.1953888	-0.039276123	9.852066
-0.1834259	-0.048858643	9.849686
-0.18821716	-0.044067383	9.844894
-0.18821716	-0.041671753	9.844894
-0.1906128	-0.041671753	9.84729
-0.19299316	-0.039276123	9.852066
-0.1953888	-0.041671753	9.854462
-0.19778442	-0.041671753	9.856857
-0.19778442	-0.041671753	9.856857
-0.20018005	-0.044067383	9.859253
-0.19778442	-0.041671753	9.859253
-0.1953888	-0.044067383	9.856857
-0.1953888	-0.046463013	9.859253
-0.19778442	-0.048858643	9.861649
-0.19778442	-0.051254272	9.861649
-0.19778442	-0.053634644	9.866425
-0.20018005	-0.051254272	9.866425
-0.20257568	-0.048858643	9.866425
-0.20497131	-0.048858643	9.86882
-0.20497131	-0.048858643	9.86882
-0.20497131	-0.048858643	9.871216
-0.20735168	-0.048858643	9.871216
-0.20497131	-0.048858643	9.86882
-0.20257568	-0.044067383	9.86882
-0.19778442	-0.048858643	9.866425
-0.19299316	-0.053634644	9.86882
-0.1953888	-0.048858643	9.86882
-0.19778442	-0.048858643	9.866425
-0.20018005	-0.046463013	9.86882
-0.20257568	-0.046463013	9.86882
-0.20257568	-0.048858643	9.866425
-0.20257568	-0.046463013	9.866425
-0.20257568	-0.046463013	9.86882
-0.20257568	-0.046463013	9.86882
-0.20257568	-0.048858643	9.866425
-0.20497131	-0.051254272	9.866425
-0.20497131	-0.048858643	9.86882
-0.20974731	-0.053634644	9.866425
-0.21453857	-0.053634644	9.864044
-0.21453857	-0.053634644	9.866425
-0.21214294	-0.051254272	9.864044
-0.21214294	-0.053634644	9.866425
-0.21453857	-0.053634644	9.864044
-0.2169342	-0.051254272	9.864044
-0.2169342	-0.053634644	9.861649
-0.2169342	-0.053634644	9.861649
-0.2169342	-0.053634644	9.864044
-0.2169342	-0.053634644	9.864044
-0.2169342	-0.056030273	9.864044
-0.2169342	-0.056030273	9.864044
-0.21453857	-0.056030273	9.864044
-0.21453857	-0.053634644	9.866425
-0.2169342	-0.053634644	9.864044
-0.2169342	-0.053634644	9.864044
-0.2169342	-0.053634644	9.864044
-0.2169342	-0.053634644	9.864044
-0.2169342	-0.053634644	9.864044
-0.2169342	-0.053634644	9.864044
-0.2169342	-0.056030273	9.866425
-0.2169342	-0.058425903	9.866425
-0.2169342	-0.058425903	9.866425
-0.2169342	-0.058425903	9.866425
-0.21931458	-0.058425903	9.866425
-0.2169342	-0.058425903	9.86882
-0.2169342	-0.058425903	9.86882
-0.2169342	-0.058425903	9.86882
-0.2169342	-0.058425903	9.86882
-0.21453857	-0.058425903	9.86882
-0.21453857	-0.06321716	9.871216
-0.21453857	-0.06321716	9.871216
-0.21453857	-0.06321716	9.873611
-0.21453857	-0.06321716	9.873611
-0.21453857	-0.06321716	9.873611
-0.21453857	-0.06321716	9.876007
-0.21453857	-0.06321716	9.873611
-0.21453857	-0.06321716	9.873611
-0.21214294	-0.065597534	9.873611
-0.21214294	-0.06321716	9.876007
-0.21214294	-0.06321716	9.876007
-0.21214294	-0.06321716	9.876007
-0.21453857	-0.06321716	9.876007
-0.21214294	-0.06321716	9.876007
-0.21214294	-0.060821533	9.878387
-0.21214294	-0.06321716	9.878387
-0.21453857	-0.06321716	9.876007
-0.20974731	-0.060821533	9.876007
-0.21214294	-0.060821533	9.876007
-0.21931458	-0.058425903	9.876007
-0.21931458	-0.058425903	9.878387
-0.21214294	-0.060821533	9.876007
-0.21214294	-0.060821533	9.878387
-0.21214294	-0.058425903	9.880783
-0.20974731	-0.058425903	9.878387
-0.20974731	-0.058425903	9.876007
-0.21214294	-0.056030273	9.878387
-0.21453857	-0.056030273	9.876007
-0.21214294	-0.060821533	9.876007
-0.21214294	-0.060821533	9.876007
-0.21453857	-0.058425903	9.876007
-0.21214294	-0.060821533	9.876007
-0.20497131	-0.060821533	9.876007
-0.19778442	-0.060821533	9.871216
-0.20018005	-0.058425903	9.866425
-0.20018005	-0.056030273	9.866425
-0.20018005	-0.056030273	9.86882
-0.20257568	-0.056030273	9.871216
-0.20257568	-0.056030273	9.871216
-0.20497131	-0.053634644	9.86882
-0.20257568	-0.053634644	9.86882
-0.20257568	-0.051254272	9.86882
-0.20497131	-0.053634644	9.864044
-0.19778442	-0.056030273	9.864044
-0.20018005	-0.053634644	9.861649
-0.19778442	-0.051254272	9.861649
-0.19778442	-0.048858643	9.859253
-0.19778442	-0.048858643	9.859253
-0.20018005	-0.046463013	9.859253
-0.20018005	-0.048858643	9.859253
-0.19778442	-0.044067383	9.859253
-0.19778442	-0.046463013	9.859253
-0.19778442	-0.044067383	9.854462
-0.19778442	-0.044067383	9.852066
-0.19778442	-0.046463013	9.856857
-0.1953888	-0.044067383	9.856857
-0.19778442	-0.044067383	9.852066
-0.20018005	-0.044067383	9.852066
-0.19778442	-0.041671753	9.849686
-0.19778442	-0.041671753	9.849686
-0.20018005	-0.044067383	9.849686
-0.20018005	-0.044067383	9.852066
-0.20018005	-0.044067383	9.849686
-0.20018005	-0.041671753	9.849686
-0.20018005	-0.041671753	9.849686
-0.20018005	-0.041671753	9.849686
-0.20257568	-0.039276123	9.849686
-0.20257568	-0.039276123	9.852066
-0.20497131	-0.041671753	9.854462
-0.20735168	-0.041671753	9.856857
-0.20735168	-0.041671753	9.849686
-0.20735168	-0.039276123	9.849686
-0.20735168	-0.039276123	9.852066
-0.20974731	-0.039276123	9.854462
-0.20735168	-0.039276123	9.852066
-0.20018005	-0.041671753	9.849686
-0.19299316	-0.041671753	9.844894
-0.18582153	-0.041671753	9.840103
-0.18582153	-0.039276123	9.840103
-0.18582153	-0.039276123	9.842499
-0.18582153	-0.036895752	9.842499
-0.18821716	-0.034500122	9.844894
-0.18582153	-0.036895752	9.842499
-0.1834259	-0.034500122	9.842499
-0.18582153	-0.036895752	9.837723
-0.18582153	-0.034500122	9.835327
-0.1834259	-0.032104492	9.835327
-0.18103027	-0.029708862	9.835327
-0.1786499	-0.027313232	9.8329315
-0.18103027	-0.029708862	9.8329315
-0.18103027	-0.027313232	9.8329315
-0.1834259	-0.027313232	9.8329315
-0.1834259	-0.027313232	9.830536
-0.18103027	-0.027313232	9.830536
-0.18103027	-0.024932861	9.8329315
-0.1786499	-0.022537231	9.830536
-0.1786499	-0.024932861	9.82814
-0.1786499	-0.027313232	9.825745
-0.18103027	-0.027313232	9.82814
-0.1786499	-0.024932861	9.830536
-0.1786499	-0.024932861	9.8329315
-0.18103027	-0.024932861	9.8329315
-0.1786499	-0.022537231	9.835327
-0.17625427	-0.020141602	9.835327
-0.1786499	-0.020141602	9.837723
-0.17625427	-0.017745972	9.837723
-0.1786499	-0.020141602	9.837723
-0.1786499	-0.020141602	9.840103
-0.17625427	-0.020141602	9.842499
-0.17625427	-0.020141602	9.842499
-0.17625427	-0.017745972	9.842499
-0.17625427	-0.017745972	9.842499
-0.17625427	-0.017745972	9.844894
-0.17625427	-0.020141602	9.84729
-0.17625427	-0.020141602	9.84729
-0.17625427	-0.017745972	9.84729
-0.17625427	-0.020141602	9.84729
-0.1786499	-0.020141602	9.849686
-0.17625427	-0.022537231	9.852066
-0.1786499	-0.022537231	9.849686
-0.17385864	-0.022537231	9.849686
-0.16906738	-0.027313232	9.854462
-0.14993286	-0.027313232	9.844894
-0.15470886	-0.027313232	9.84729
-0.16667175	-0.029708862	9.849686
-0.16906738	-0.036895752	9.852066
-0.18103027	-0.032104492	9.856857
-0.1834259	-0.032104492	9.861649
-0.18821716	-0.034500122	9.864044
-0.1906128	-0.036895752	9.864044
-0.19299316	-0.036895752	9.86882
-0.1953888	-0.039276123	9.86882
-0.1953888	-0.039276123	9.871216
-0.20018005	-0.036895752	9.871216
-0.20735168	-0.036895752	9.873611
-0.21453857	-0.029708862	9.871216
-0.19778442	-0.039276123	9.873611
-0.17385864	-0.046463013	9.864044
-0.16667175	-0.044067383	9.856857
-0.16906738	-0.041671753	9.859253
-0.17146301	-0.044067383	9.864044
-0.16906738	-0.039276123	9.859253
-0.16906738	-0.036895752	9.859253
-0.16906738	-0.034500122	9.859253
-0.16906738	-0.032104492	9.861649
-0.17146301	-0.032104492	9.861649
-0.16906738	-0.029708862	9.859253
-0.16906738	-0.029708862	9.859253
-0.16906738	-0.029708862	9.859253
-0.16906738	-0.029708862	9.859253
-0.17146301	-0.029708862	9.859253
-0.17146301	-0.027313232	9.859253
-0.17146301	-0.027313232	9.854462
-0.16906738	-0.027313232	9.856857
-0.16667175	-0.027313232	9.856857
-0.16906738	-0.027313232	9.856857
-0.16667175	-0.024932861	9.856857
-0.16906738	-0.024932861	9.854462
-0.16906738	-0.022537231	9.852066
-0.16906738	-0.022537231	9.854462
-0.16906738	-0.022537231	9.852066
-0.17146301	-0.020141602	9.849686
-0.16906738	-0.022537231	9.849686
-0.17146301	-0.024932861	9.852066
-0.17146301	-0.024932861	9.849686
-0.17146301	-0.022537231	9.849686
-0.17146301	-0.022537231	9.84729
-0.17385864	-0.024932861	9.852066
-0.17385864	-0.024932861	9.849686
-0.17385864	-0.022537231	9.844894
-0.17385864	-0.022537231	9.842499
-0.17385864	-0.024932861	9.844894
-0.17385864	-0.024932861	9.844894
-0.17385864	-0.024932861	9.842499
-0.17625427	-0.024932861	9.842499
-0.17385864	-0.022537231	9.842499
-0.17385864	-0.022537231	9.840103
-0.17385864	-0.022537231	9.840103
-0.17625427	-0.024932861	9.837723
-0.17625427	-0.024932861	9.835327
-0.17385864	-0.022537231	9.835327
-0.17146301	-0.022537231	9.835327
-0.17146301	-0.017745972	9.835327
-0.17146301	-0.017745972	9.8329315
-0.17385864	-0.017745972	9.8329315
-0.17385864	-0.017745972	9.8329315
-0.17146301	-0.015350342	9.8329315
-0.17385864	-0.017745972	9.830536
-0.09010315	-0.027313232	9.820969
-0.06378174	-0.06321716	9.80661
-0.10925293	-0.032104492	9.794647
-0.13796997	-0.029708862	9.80661
-0.16906738	-0.032104492	9.813782
-0.16429138	-0.039276123	9.823364
-0.16429138	-0.039276123	9.830536
-0.1834259	-0.032104492	9.830536
-0.18582153	-0.034500122	9.8329315
-0.1906128	-0.034500122	9.835327
-0.1953888	-0.034500122	9.840103
-0.1953888	-0.034500122	9.840103
-0.19778442	-0.034500122	9.842499
-0.19778442	-0.036895752	9.840103
-0.1834259	-0.041671753	9.8329315
-0.19299316	-0.039276123	9.8329315
-0.1953888	-0.044067383	9.799438
-0.1906128	-0.039276123	9.82814
-0.14753723	-0.058425903	9.88797
-0.19299316	-0.056030273	9.82814
-0.1786499	-0.051254272	9.844894
-0.1953888	-0.051254272	9.809006
-0.1953888	-0.053634644	9.820969
-0.21931458	-0.051254272	9.816177
-0.2217102	-0.051254272	9.823364
-0.2217102	-0.051254272	9.835327
-0.2217102	-0.048858643	9.844894
-0.2217102	-0.046463013	9.825745
-0.2217102	-0.051254272	9.823364
-0.21931458	-0.053634644	9.840103
-0.21931458	-0.053634644	9.8329315
-0.21931458	-0.048858643	9.823364
-0.2169342	-0.048858643	9.835327
-0.2169342	-0.051254272	9.840103
-0.21453857	-0.056030273	9.835327
-0.21931458	-0.053634644	9.835327
-0.21931458	-0.056030273	9.840103
-0.21931458	-0.053634644	9.842499
-0.22410583	-0.048858643	9.849686
-0.2169342	-0.053634644	9.852066
-0.21931458	-0.053634644	9.849686
-0.21453857	-0.048858643	9.849686
-0.2169342	-0.051254272	9.852066
-0.2217102	-0.056030273	9.854462
-0.22410583	-0.060821533	9.852066
-0.2217102	-0.056030273	9.854462
-0.21453857	-0.051254272	9.854462
-0.21453857	-0.048858643	9.852066
-0.2217102	-0.039276123	9.852066
-0.24325562	0.00617981	9.852066
-0.20974731	-0.056030273	9.842499
-0.1906128	-0.07518005	9.84729
-0.18821716	-0.077560425	9.854462
-0.1906128	-0.072784424	9.859253
-0.19299316	-0.072784424	9.861649
-0.1953888	-0.072784424	9.864044
-0.1906128	-0.067993164	9.861649
-0.19299316	-0.065597534	9.859253
-0.1953888	-0.06321716	9.864044
-0.19778442	-0.06321716	9.864044
-0.1953888	-0.060821533	9.864044
-0.1953888	-0.060821533	9.866425
-0.1953888	-0.056030273	9.866425
-0.1953888	-0.056030273	9.866425
-0.19778442	-0.056030273	9.86882
-0.19778442	-0.053634644	9.86882
-0.20018005	-0.053634644	9.86882
-0.20018005	-0.053634644	9.873611
-0.20018005	-0.051254272	9.873611
-0.20257568	-0.051254272	9.873611
-0.20497131	-0.051254272	9.873611
-0.20497131	-0.053634644	9.873611
-0.20735168	-0.053634644	9.873611
-0.20735168	-0.051254272	9.871216
-0.20735168	-0.053634644	9.876007
-0.20735168	-0.053634644	9.876007
-0.20735168	-0.053634644	9.876007
-0.20735168	-0.056030273	9.878387
-0.21214294	-0.056030273	9.878387
-0.21931458	-0.048858643	9.873611
-0.21931458	-0.044067383	9.871216
-0.21931458	-0.041671753	9.871216
-0.20018005	-0.048858643	9.871216
-0.18582153	-0.058425903	9.871216
-0.18582153	-0.058425903	9.871216
-0.18821716	-0.056030273	9.86882
-0.19299316	-0.056030273	9.866425
-0.1953888	-0.056030273	9.86882
-0.1953888	-0.053634644	9.86882
-0.19778442	-0.053634644	9.86882
-0.20018005	-0.053634644	9.866425
-0.20018005	-0.053634644	9.866425
-0.20257568	-0.053634644	9.866425
-0.20257568	-0.051254272	9.866425
-0.20257568	-0.051254272	9.866425
-0.20257568	-0.051254272	9.86882
-0.20497131	-0.048858643	9.86882
-0.20257568	-0.046463013	9.866425
-0.20257568	-0.046463013	9.866425
-0.20497131	-0.046463013	9.864044
-0.20497131	-0.046463013	9.866425
-0.20497131	-0.044067383	9.864044
-0.20257568	-0.041671753	9.864044
-0.20257568	-0.044067383	9.861649
-0.21214294	-0.044067383	9.861649
-0.20974731	-0.044067383	9.861649
-0.20257568	-0.041671753	9.859253
-0.20497131	-0.041671753	9.856857
-0.20735168	-0.041671753	9.856857
-0.20497131	-0.041671753	9.854462
-0.20735168	-0.039276123	9.852066
-0.21214294	-0.034500122	9.849686
-0.21214294	-0.036895752	9.852066
-0.21214294	-0.039276123	9.854462
-0.2169342	-0.032104492	9.852066
-0.2169342	-0.032104492	9.852066
-0.2169342	-0.029708862	9.852066
-0.20735168	-0.032104492	9.852066
-0.1906128	-0.039276123	9.852066
-0.1834259	-0.041671753	9.849686
-0.18103027	-0.044067383	9.84729
-0.18582153	-0.044067383	9.844894
-0.18821716	-0.044067383	9.842499
-0.1906128	-0.041671753	9.84729
-0.1906128	-0.041671753	9.84729
-0.1953888	-0.041671753	9.849686
-0.1906128	-0.041671753	9.849686
-0.19299316	-0.041671753	9.849686
-0.1906128	-0.039276123	9.849686
-0.19299316	-0.039276123	9.84729
-0.1953888	-0.036895752	9.84729
-0.1953888	-0.036895752	9.842499
-0.1953888	-0.034500122	9.844894
-0.19778442	-0.036895752	9.84729
-0.19778442	-0.036895752	9.849686
-0.19778442	-0.039276123	9.84729
-0.20018005	-0.039276123	9.849686
-0.20018005	-0.036895752	9.852066
-0.20018005	-0.036895752	9.852066
-0.20018005	-0.036895752	9.849686
-0.20018005	-0.036895752	9.84729
-0.19778442	-0.036895752	9.84729
-0.19778442	-0.036895752	9.849686
-0.20018005	-0.036895752	9.849686
-0.20018005	-0.039276123	9.849686
-0.20257568	-0.039276123	9.849686
-0.20257568	-0.041671753	9.854462
-0.20257568	-0.041671753	9.854462
-0.20497131	-0.044067383	9.854462
-0.20497131	-0.044067383	9.856857
-0.20497131	-0.046463013	9.859253
-0.20497131	-0.048858643	9.861649
-0.20735168	-0.048858643	9.861649
-0.20497131	-0.046463013	9.861649
-0.20497131	-0.046463013	9.861649
-0.20497131	-0.046463013	9.861649
-0.20497131	-0.046463013	9.864044
-0.20735168	-0.048858643	9.866425
-0.20497131	-0.051254272	9.866425
-0.20497131	-0.053634644	9.866425
-0.20735168	-0.053634644	9.86882
-0.20735168	-0.053634644	9.86882
-0.20974731	-0.053634644	9.86882
-0.20974731	-0.056030273	9.86882
-0.20974731	-0.056030273	9.871216
-0.20974731	-0.056030273	9.871216
-0.20974731	-0.058425903	9.871216
-0.20974731	-0.058425903	9.871216
-0.20974731	-0.053634644	9.86882
-0.20735168	-0.056030273	9.871216
-0.20018005	-0.058425903	9.871216
-0.20497131	-0.056030273	9.871216
-0.20735168	-0.056030273	9.871216
-0.20974731	-0.056030273	9.871216
-0.21214294	-0.056030273	9.871216
-0.21214294	-0.056030273	9.871216
-0.21214294	-0.056030273	9.873611
-0.21214294	-0.056030273	9.873611
-0.21214294	-0.056030273	9.876007
-0.21214294	-0.058425903	9.876007
-0.21214294	-0.060821533	9.876007
-0.21214294	-0.06321716	9.876007
-0.20974731	-0.060821533	9.878387
-0.20974731	-0.060821533	9.878387
-0.21214294	-0.060821533	9.876007
-0.21214294	-0.060821533	9.878387
-0.21214294	-0.060821533	9.878387
-0.21214294	-0.058425903	9.876007
-0.21214294	-0.058425903	9.876007
-0.21214294	-0.056030273	9.873611
-0.21214294	-0.056030273	9.873611
-0.21214294	-0.058425903	9.873611
-0.21214294	-0.056030273	9.873611
-0.21453857	-0.056030273	9.873611
-0.21453857	-0.053634644	9.873611
-0.21453857	-0.053634644	9.885574
-0.21453857	-0.056030273	9.892746
-0.21453857	-0.053634644	9.897537
-0.21453857	-0.058425903	9.895142
-0.21214294	-0.060821533	9.892746
-0.20974731	-0.06321716	9.890366
-0.20974731	-0.06321716	9.890366
-0.21214294	-0.06321716	9.885574
-0.21453857	-0.060821533	9.880783
-0.2169342	-0.058425903	9.871216
-0.21453857	-0.056030273	9.871216
-0.21931458	-0.053634644	9.866425
-0.2217102	-0.056030273	9.86882