sensor	time	ax	ay	az
1	17	1580	-300	15720
2	17	-460	176	22956
1	27	1708	-264	15572
2	27	-500	300	22916
1	37	1592	-180	15748
2	37	-544	308	23080
1	47	1668	-344	15640
2	47	-544	424	23048
1	57	1584	-232	15568
2	57	-484	312	22884
1	67	1772	-288	15772
2	67	-560	304	22976
1	77	1620	-168	15724
2	77	-500	292	22908
1	87	1604	-364	15692
2	87	-516	256	22940
1	97	1652	-296	15588
2	97	-436	352	22880
1	107	1644	-236	15760
2	107	-456	340	22916
1	117	1536	-292	15708
2	117	-476	288	23124
1	128	1516	-292	15804
2	128	-456	272	22920
1	137	1556	-180	15704
2	137	-484	348	23028
1	147	1548	-328	15700
2	147	-508	316	22960
1	157	1612	-160	15700
2	157	-408	288	23120
1	167	1644	-268	15680
2	167	-580	344	23056
1	177	1604	-348	15620
2	177	-396	324	22872
1	187	1652	-272	15632
2	187	-368	356	23004
1	197	1668	-332	15640
2	197	-556	340	22956
1	207	1600	-300	15712
2	207	-472	284	22952
1	217	1596	-236	15760
2	217	-516	308	23076
1	227	1676	-300	15516
2	227	-488	376	23180
1	237	1600	-356	15700
2	237	-516	376	22968
1	247	1628	-236	15780
2	247	-456	288	22940
1	257	1624	-220	15716
2	257	-476	396	22928
1	267	1572	-232	15568
2	267	-560	364	22796
1	277	1636	-308	15636
2	277	-540	308	22984
1	287	1600	-252	15708
2	287	-496	452	23056
1	297	1592	-256	15756
2	297	-436	280	22988
1	307	1580	-272	15640
2	307	-420	288	23004
1	317	1568	-276	15608
2	317	-500	440	22948
1	327	1636	-328	15720
2	327	-468	332	23028
1	337	1592	-232	15620
2	337	-516	244	22944
1	347	1580	-288	15552
2	347	-464	384	22860
1	357	1600	-224	15796
2	357	-488	256	22936
1	367	1672	-312	15716
2	367	-552	268	22884
1	377	1588	-248	15692
2	377	-392	324	23056
1	387	1720	-148	15836
2	387	-384	324	22904
1	397	1664	-284	15896
2	397	-460	256	22964
1	407	1648	-304	15672
2	407	-460	336	22856
1	417	1524	-216	15716
2	417	-444	356	22956
1	427	1588	-188	15704
2	427	-464	412	22796
1	437	1616	-288	15608
2	437	-516	172	22936
1	447	1660	-264	15684
2	447	-524	280	23076
1	457	1576	-232	15692
2	457	-520	324	23152
1	467	1640	-300	15700
2	467	-612	276	22964
1	477	1636	-320	15720
2	477	-460	392	23000
1	487	1636	-228	15704
2	487	-556	308	23012
1	497	1600	-256	15732
2	497	-500	312	22952
1	507	1580	-212	15688
2	507	-448	452	23008
1	517	1604	-300	15680
2	517	-500	340	23016
1	527	1668	-252	15744
2	527	-512	280	22988
1	537	1744	-272	15560
2	537	-412	348	22864
1	547	1660	-264	15712
2	547	-484	440	22876
1	557	1556	-260	15724
2	557	-568	220	23000
1	567	1568	-320	15712
2	567	-460	384	22804
1	577	1660	-288	15716
2	577	-500	304	22996
1	587	1640	-284	15696
2	587	-488	380	22964
1	598	1596	-304	15756
2	598	-552	388	23016
1	607	1604	-252	15692
2	607	-508	344	23128
1	617	1584	-284	15760
2	617	-408	328	22956
1	627	1636	-228	15660
2	627	-440	420	22984
1	637	1556	-260	15496
2	637	-524	368	22948
1	647	1684	-168	15740
2	647	-572	228	22932
1	657	1644	-340	15664
2	657	-428	268	23028
1	667	1624	-300	15788
2	667	-448	264	22944
1	677	1756	-252	15572
2	677	-576	340	22952
1	687	1688	-308	15716
2	687	-508	220	22968
1	697	1572	-364	15640
2	697	-436	340	22888
1	707	1644	-176	15868
2	707	-472	312	23012
1	717	1616	-292	15748
2	717	-440	304	22988
1	727	1672	-196	15744
2	727	-516	396	22872
1	737	1648	-268	15608
2	737	-404	384	22992
1	747	1656	-284	15684
2	747	-476	336	23088
1	757	1616	-204	15652
2	757	-540	400	22924
1	768	1728	-272	15636
2	768	-436	232	22964
1	777	1568	-344	15512
2	777	-420	296	22988
1	787	1640	-276	15764
2	787	-436	220	22936
1	797	1636	-284	15716
2	797	-524	296	22976
1	807	1648	-288	15648
2	807	-536	248	22964
1	817	1556	-244	15656
2	817	-524	280	23032
1	827	1540	-296	15704
2	827	-592	292	22832
1	837	1512	-312	15620
2	837	-496	308	23140
1	847	1496	-308	15744
2	847	-448	328	22952
1	857	1732	-224	15696
2	857	-516	356	22940
1	867	1556	-300	15796
2	867	-528	280	23104
1	877	1632	-212	15692
2	877	-552	228	22976
1	887	1612	-264	15700
2	887	-560	308	22908
1	897	1636	-252	15752
2	897	-584	348	22988
1	907	1548	-268	15592
2	907	-528	380	23000
1	917	1592	-328	15700
2	917	-448	316	23004
1	927	1660	-424	15748
2	927	-560	396	23056
1	937	1604	-264	15640
2	937	-496	380	23020
1	947	1524	-268	15748
2	947	-540	384	22956
1	957	1632	-312	15688
2	957	-472	368	22972
1	967	1604	-264	15644
2	967	-552	284	23060
1	977	1692	-280	15724
2	977	-484	428	23036
1	987	1712	-300	15700
2	987	-468	176	23108
1	997	1620	-280	15720
2	997	-516	288	22984
1	1007	1612	-356	15704
2	1007	-476	284	22984
1	1017	1532	-260	15660
2	1017	-464	452	23092
1	1027	1644	-280	15696
2	1027	-452	284	22804
1	1037	1652	-328	15712
2	1037	-508	340	22816
1	1047	1604	-352	15648
2	1047	-464	320	23032
1	1057	1572	-188	15464
2	1057	-404	224	22880
1	1067	1620	-272	15680
2	1067	-508	220	22992
1	1077	1752	-256	15648
2	1077	-396	332	23008
1	1087	1552	-188	15708
2	1087	-520	352	22976
1	1097	1600	-244	15532
2	1097	-496	236	22848
1	1107	1692	-332	15560
2	1107	-476	208	22888
1	1117	1676	-304	15696
2	1117	-476	240	23068
1	1127	1628	-288	15732
2	1127	-432	348	22920
1	1137	1584	-356	15672
2	1137	-376	312	22968
1	1147	1584	-248	15680
2	1147	-568	272	23052
1	1157	1656	-252	15824
2	1157	-464	292	23004
1	1167	1720	-196	15732
2	1167	-632	260	23020
1	1177	1648	-284	15752
2	1177	-440	208	23016
1	1187	1592	-260	15760
2	1187	-468	280	23092
1	1197	1668	-232	15628
2	1197	-568	360	23064
1	1207	1524	-284	15708
2	1207	-480	280	22828
1	1217	1660	-324	15784
2	1217	-536	352	23012
1	1227	1656	-240	15764
2	1227	-436	296	23024
1	1238	1624	-396	15708
2	1238	-576	296	22828
1	1247	1652	-244	15756
2	1247	-464	304	22904
1	1257	1732	-336	15628
2	1257	-420	368	23048
1	1267	1628	-288	15568
2	1267	-572	344	22976
1	1277	1612	-272	15820
2	1277	-448	280	22916
1	1287	1712	-220	15600
2	1287	-536	308	23080
1	1297	1576	-300	15804
2	1297	-536	320	22916
1	1307	1680	-220	15652
2	1307	-488	348	22964
1	1317	1556	-268	15536
2	1317	-408	304	22980
1	1327	1608	-304	15744
2	1327	-452	332	23052
1	1337	1636	-316	15676
2	1337	-572	184	23020
1	1347	1652	-260	15636
2	1347	-548	288	23004
1	1357	1652	-212	15768
2	1357	-552	316	22912
1	1367	1536	-236	15700
2	1367	-516	340	23088
1	1377	1668	-188	15656
2	1377	-416	412	23200
1	1387	1552	-268	15688
2	1387	-516	324	23024
1	1397	1704	-280	15740
2	1397	-496	296	22988
1	1408	1672	-180	15748
2	1408	-448	320	22892
1	1417	1588	-212	15604
2	1417	-620	396	23024
1	1427	1692	-160	15648
2	1427	-532	288	23032
1	1437	1672	-324	15580
2	1437	-512	356	22968
1	1447	1676	-308	15740
2	1447	-544	380	23064
1	1457	1556	-312	15700
2	1457	-508	312	22948
1	1467	1600	-256	15564
2	1467	-516	384	22916
1	1477	1592	-228	15620
2	1477	-564	268	22868
1	1487	1700	-348	15616
2	1487	-548	224	23008
1	1497	1596	-220	15692
2	1497	-432	304	22956
1	1507	1680	-320	15744
2	1507	-552	364	23072
1	1517	1684	-268	15748
2	1517	-484	312	22964
1	1527	1724	-312	15816
2	1527	-564	308	22992
1	1537	1620	-228	15592
2	1537	-472	272	22968
1	1547	1600	-280	15636
2	1547	-456	352	22940
1	1557	1548	-232	15768
2	1557	-408	252	23020
1	1567	1572	-364	15648
2	1567	-484	328	23028
1	1577	1568	-332	15792
2	1577	-560	248	23056
1	1587	1580	-292	15672
2	1587	-452	180	23000
1	1597	1624	-276	15648
2	1597	-468	308	22896
1	1607	1632	-348	15732
2	1607	-504	280	22952
1	1617	1660	-376	15740
2	1617	-488	292	22884
1	1627	1640	-304	15660
2	1627	-456	268	22928
1	1637	1608	-264	15612
2	1637	-424	284	23004
1	1647	1724	-248	15712
2	1647	-500	304	22832
1	1657	1652	-240	15736
2	1657	-456	392	22964
1	1667	1588	-212	15704
2	1667	-464	368	23108
1	1677	1700	-328	15744
2	1677	-532	400	22892
1	1687	1612	-296	15620
2	1687	-504	252	22860
1	1697	1652	-176	15700
2	1697	-604	300	23020
1	1707	1636	-280	15720
2	1707	-476	316	22888
1	1717	1704	-244	15716
2	1717	-572	208	22908
1	1727	1672	-200	15756
2	1727	-568	408	23112
1	1737	1536	-312	15588
2	1737	-560	356	22952
1	1747	1652	-204	15744
2	1747	-500	332	22952
1	1757	1576	-172	15744
2	1757	-580	312	22956
1	1767	1608	-208	15652
2	1767	-504	332	23068
1	1777	1604	-212	15716
2	1777	-564	296	22952
1	1787	1660	-284	15772
2	1787	-528	284	22816
1	1797	1576	-128	15724
2	1797	-388	244	23020
1	1807	1656	-164	15812
2	1807	-464	284	23084
1	1817	1520	-256	15720
2	1817	-424	380	22976
1	1827	1648	-368	15652
2	1827	-632	316	23020
1	1837	1680	-280	15768
2	1837	-536	324	23032
1	1847	1584	-240	15644
2	1847	-416	316	22980
1	1857	1644	-228	15672
2	1857	-508	368	22940
1	1867	1596	-288	15804
2	1867	-568	216	23060
1	1878	1688	-248	15600
2	1878	-432	308	22980
1	1887	1584	-304	15716
2	1887	-484	368	22936
1	1897	1560	-256	15728
2	1897	-520	224	23000
1	1907	1688	-280	15540
2	1907	-464	316	23048
1	1917	1588	-160	15772
2	1917	-524	284	23052
1	1927	1688	-280	15668
2	1927	-496	228	22984
1	1937	1652	-268	15660
2	1937	-464	352	22916
1	1947	1556	-256	15720
2	1947	-548	340	23068
1	1957	1568	-312	15616
2	1957	-528	280	22988
1	1967	1732	-240	15636
2	1967	-596	272	22892
1	1977	1620	-264	15652
2	1977	-524	368	22808
1	1987	1576	-316	15608
2	1987	-556	392	22904
1	1997	1616	-272	15772
2	1997	-540	272	22928
1	2007	1708	-168	15672
2	2007	-564	456	23000
1	2017	1512	-312	15704
2	2017	-476	388	23068
1	2027	1624	-304	15704
2	2027	-424	312	22948
1	2037	1592	-248	15552
2	2037	-556	324	22952
1	2048	1560	-264	15808
2	2048	-464	292	22908
1	2057	1640	-280	15604
2	2057	-472	320	23008
1	2067	1660	-208	15672
2	2067	-464	320	23052
1	2077	1560	-312	15744
2	2077	-568	388	22904
1	2087	1584	-320	15704
2	2087	-428	364	23104
1	2097	1636	-304	15788
2	2097	-548	268	23052
1	2107	1652	-372	15636
2	2107	-524	344	23020
1	2117	1644	-248	15588
2	2117	-504	356	22972
1	2127	1680	-276	15728
2	2127	-504	432	23124
1	2137	1716	-248	15836
2	2137	-504	364	22940
1	2147	1656	-348	15860
2	2147	-520	344	22964
1	2157	1696	-280	15608
2	2157	-512	316	22968
1	2167	1632	-284	15760
2	2167	-476	368	22924
1	2177	1624	-244	15688
2	2177	-420	380	23068
1	2187	1628	-248	15756
2	2187	-528	340	22784
1	2197	1736	-252	15748
2	2197	-420	380	23012
1	2207	1624	-244	15692
2	2207	-608	312	22916
1	2217	1544	-240	15612
2	2217	-436	372	22964
1	2227	1608	-328	15700
2	2227	-472	396	23060
1	2237	1652	-212	15672
2	2237	-536	276	22984
1	2247	1660	-320	15656
2	2247	-508	304	22968
1	2257	1644	-368	15704
2	2257	-488	308	22916
1	2267	1620	-272	15704
2	2267	-528	308	23008
1	2277	1528	-252	15720
2	2277	-512	308	22992
1	2287	1688	-348	15828
2	2287	-484	176	22952
1	2297	1596	-216	15556
2	2297	-464	320	22936
1	2307	1492	-272	15720
2	2307	-484	316	22952
1	2317	1644	-308	15704
2	2317	-472	332	22824
1	2327	1624	-276	15740
2	2327	-404	296	22996
1	2337	1680	-280	15768
2	2337	-460	328	22860
1	2347	1704	-168	15744
2	2347	-496	244	22964
1	2357	1668	-304	15628
2	2357	-496	232	22948
1	2367	1696	-308	15632
2	2367	-584	284	23076
1	2377	1716	-276	15716
2	2377	-408	416	23088
1	2387	1640	-360	15848
2	2387	-592	332	22924
1	2397	1632	-332	15724
2	2397	-432	304	22928
1	2407	1608	-232	15792
2	2407	-536	256	22996
1	2417	1600	-316	15604
2	2417	-516	240	22996
1	2427	1644	-168	15756
2	2427	-480	284	22900
1	2437	1672	-152	15596
2	2437	-488	184	22932
1	2447	1592	-292	15844
2	2447	-472	312	22964
1	2457	1664	-280	15664
2	2457	-448	248	23076
1	2467	1756	-308	15740
2	2467	-584	368	23012
1	2477	1656	-276	15588
2	2477	-380	300	22948
1	2487	1580	-300	15752
2	2487	-400	372	23000
1	2497	1668	-232	15764
2	2497	-448	268	22880
1	2507	1656	-280	15880
2	2507	-572	348	23064
1	2518	1692	-312	15784
2	2518	-488	288	23028
1	2527	1624	-236	15704
2	2527	-380	324	23140
1	2537	1652	-200	15600
2	2537	-620	268	22840
1	2547	1676	-344	15796
2	2547	-460	320	22948
1	2557	1628	-256	15680
2	2557	-440	336	22952
1	2567	1548	-320	15560
2	2567	-548	212	22988
1	2577	1700	-304	15636
2	2577	-504	324	23068
1	2587	1564	-288	15668
2	2587	-496	320	22956
1	2597	1684	-280	15796
2	2597	-512	220	22980
1	2607	1652	-296	15652
2	2607	-488	288	23008
1	2617	1596	-224	15644
2	2617	-472	236	23060
1	2627	1628	-348	15596
2	2627	-528	240	22936
1	2637	1632	-252	15748
2	2637	-488	284	23060
1	2647	1728	-264	15732
2	2647	-552	240	23088
1	2657	1696	-324	15752
2	2657	-468	332	22856
1	2667	1628	-260	15796
2	2667	-504	240	23156
1	2677	1668	-272	15764
2	2677	-516	384	23012
1	2688	1612	-212	15720
2	2688	-540	436	22840
1	2697	1572	-180	15652
2	2697	-508	248	22980
1	2707	1564	-260	15704
2	2707	-396	316	23032
1	2717	1648	-356	15648
2	2717	-576	372	22948
1	2727	1712	-328	15756
2	2727	-516	296	22956
1	2737	1636	-216	15880
2	2737	-516	260	22904
1	2747	1584	-276	15536
2	2747	-504	284	22968
1	2757	1728	-320	15740
2	2757	-516	436	23012
1	2767	1568	-284	15616
2	2767	-456	312	22976
1	2777	1728	-292	15788
2	2777	-568	328	23020
1	2787	1636	-260	15668
2	2787	-552	396	23020
1	2797	1624	-244	15612
2	2797	-524	348	22968
1	2807	1540	-296	15576
2	2807	-404	352	22852
1	2817	1588	-252	15688
2	2817	-556	340	22952
1	2827	1620	-228	15588
2	2827	-500	308	22900
1	2837	1648	-328	15680
2	2837	-472	316	22824
1	2847	1612	-220	15680
2	2847	-548	304	23024
1	2857	1524	-340	15688
2	2857	-556	260	23004
1	2867	1692	-288	15664
2	2867	-436	324	22972
1	2877	1628	-272	15680
2	2877	-528	276	22936
1	2887	1688	-300	15680
2	2887	-548	276	22940
1	2897	1652	-156	15808
2	2897	-444	332	22956
1	2907	1636	-304	15672
2	2907	-584	320	22972
1	2917	1660	-224	15780
2	2917	-464	296	23016
1	2927	1776	-272	15768
2	2927	-444	380	22780
1	2937	1700	-236	15704
2	2937	-576	264	23092
1	2947	1632	-268	15856
2	2947	-432	224	22908
1	2957	1692	-260	15592
2	2957	-464	368	22924
1	2967	1600	-312	15744
2	2967	-460	292	22908
1	2977	1716	-160	15644
2	2977	-544	336	22944
1	2987	1744	-232	15808
2	2987	-492	296	23056
1	2997	1652	-276	15824
2	2997	-436	272	22952
1	3007	1664	-228	15628
2	3007	-400	256	23032
1	3017	1552	-300	15716
2	3017	-540	228	22928
1	3027	1656	-272	15804
2	3027	-500	404	23040
1	3037	1628	-276	15720
2	3037	-600	448	23080
1	3047	1624	-172	15744
2	3047	-488	240	23024
1	3057	1640	-268	15776
2	3057	-520	204	23048
1	3067	1616	-288	15624
2	3067	-516	340	23060
1	3077	1632	-256	15876
2	3077	-508	352	22928
1	3087	1600	-252	15640
2	3087	-552	344	23136
1	3097	1612	-276	15676
2	3097	-528	380	22972
1	3107	1668	-180	15844
2	3107	-520	308	22904
1	3117	1660	-320	15724
2	3117	-456	312	23064
1	3127	1748	-252	15680
2	3127	-456	420	22980
1	3137	1696	-236	15716
2	3137	-456	320	23032
1	3147	1644	-244	15740
2	3147	-504	292	23044
1	3158	1696	-216	15596
2	3158	-592	380	23060
1	3167	1612	-228	15612
2	3167	-468	300	22988
1	3177	1580	-264	15616
2	3177	-492	400	22940
1	3187	1668	-224	15652
2	3187	-508	428	22836
1	3197	1692	-240	15608
2	3197	-524	264	23124
1	3207	1644	-248	15648
2	3207	-516	408	22968
1	3217	1628	-328	15680
2	3217	-484	204	22916
1	3227	1668	-320	15712
2	3227	-460	364	23036
1	3237	1636	-240	15596
2	3237	-516	312	23088
1	3247	1648	-232	15696
2	3247	-464	372	22948
1	3257	1560	-164	15560
2	3257	-564	336	22920
1	3267	1596	-264	15708
2	3267	-492	288	22984
1	3277	1540	-312	15732
2	3277	-516	292	22980
1	3287	1648	-280	15744
2	3287	-456	308	23116
1	3297	1596	-244	15616
2	3297	-376	376	23088
1	3307	1632	-256	15684
2	3307	-456	364	22880
1	3317	1628	-272	15612
2	3317	-552	324	22976
1	3328	1676	-268	15648
2	3328	-544	396	23056
1	3337	1616	-264	15728
2	3337	-488	328	22948
1	3347	1668	-236	15736
2	3347	-436	224	23020
1	3357	1656	-288	15808
2	3357	-520	440	22988
1	3367	1608	-264	15732
2	3367	-476	372	22896
1	3377	1636	-352	15752
2	3377	-508	304	23008
1	3387	1636	-200	15776
2	3387	-464	316	22916
1	3397	1636	-236	15784
2	3397	-472	312	23016
1	3407	1568	-212	15692
2	3407	-496	440	22860
1	3417	1656	-192	15668
2	3417	-448	228	23076
1	3427	1624	-296	15604
2	3427	-552	204	22912
1	3437	1656	-240	15848
2	3437	-464	296	23052
1	3447	1680	-268	15780
2	3447	-504	320	22920
1	3457	1624	-288	15660
2	3457	-480	380	22908
1	3467	1740	-320	15844
2	3467	-560	316	22956
1	3477	1636	-332	15656
2	3477	-420	340	23052
1	3487	1608	-276	15636
2	3487	-456	296	22928
1	3497	1632	-340	15692
2	3497	-452	292	23108
1	3507	1684	-216	15684
2	3507	-524	320	23016
1	3517	1708	-188	15676
2	3517	-436	268	22880
1	3527	1640	-236	15820
2	3527	-504	356	23028
1	3537	1656	-264	15772
2	3537	-432	268	22932
1	3547	1680	-180	15664
2	3547	-428	292	22976
1	3557	1580	-304	15528
2	3557	-552	320	23136
1	3567	1744	-336	15692
2	3567	-464	372	23052
1	3577	1620	-260	15728
2	3577	-532	332	23032
1	3587	1480	-284	15724
2	3587	-536	320	22928
1	3597	1592	-288	15728
2	3597	-332	392	22940
1	3607	1600	-240	15708
2	3607	-520	244	22892
1	3617	1644	-236	15640
2	3617	-452	344	22924
1	3627	1480	-188	15720
2	3627	-496	248	23040
1	3637	1656	-328	15684
2	3637	-508	324	22904
1	3647	1724	-244	15728
2	3647	-452	292	23172
1	3657	1596	-312	15576
2	3657	-528	308	23036
1	3667	1620	-256	15624
2	3667	-500	332	22988
1	3677	1644	-204	15708
2	3677	-532	356	22928
1	3687	1656	-184	15644
2	3687	-496	248	22900
1	3697	1592	-260	15772
2	3697	-516	360	23076
1	3707	1616	-264	15752
2	3707	-396	228	23120
1	3717	1524	-224	15704
2	3717	-568	312	22940
1	3727	1688	-240	15648
2	3727	-576	264	22956
1	3737	1644	-160	15752
2	3737	-524	340	22888
1	3747	1540	-364	15652
2	3747	-424	212	22976
1	3757	1592	-236	15732
2	3757	-492	276	23068
1	3767	1600	-372	15736
2	3767	-580	328	22964
1	3777	1588	-328	15736
2	3777	-544	340	22932
1	3787	1688	-276	15688
2	3787	-528	384	22964
1	3798	1600	-236	15732
2	3798	-528	340	22808
1	3807	1628	-284	15692
2	3807	-456	404	22932
1	3817	1632	-288	15756
2	3817	-440	332	23096
1	3827	1628	-324	15712
2	3827	-436	296	22924
1	3837	1616	-288	15596
2	3837	-464	272	22864
1	3847	1552	-276	15636
2	3847	-492	320	23028
1	3857	1684	-204	15628
2	3857	-460	332	22888
1	3867	1696	-296	15620
2	3867	-584	344	22976
1	3877	1648	-312	15752
2	3877	-468	340	23096
1	3887	1796	-360	15648
2	3887	-508	376	23004
1	3897	1632	-240	15752
2	3897	-476	308	22972
1	3907	1552	-260	15672
2	3907	-520	288	23036
1	3917	1668	-268	15632
2	3917	-468	356	22888
1	3927	1672	-224	15664
2	3927	-536	372	22832
1	3937	1728	-288	15820
2	3937	-532	228	23036
1	3947	1468	-268	15732
2	3947	-480	372	22872
1	3957	1712	-228	15780
2	3957	-572	332	23080
1	3968	1648	-260	15760
2	3968	-588	316	23036
1	3977	1700	-304	15764
2	3977	-440	268	23004
1	3987	1556	-316	15624
2	3987	-532	352	23036
1	3997	1680	-220	15740
2	3997	-488	328	23128
1	4007	1640	-268	15656
2	4007	-456	300	22980
1	4017	1592	-344	15712
2	4017	-512	352	23004
1	4027	1704	-268	15740
2	4027	-540	296	22988
1	4037	1628	-176	15600
2	4037	-464	340	22896
1	4047	1604	-324	15608
2	4047	-440	280	22980
1	4057	1580	-168	15688
2	4057	-416	268	22740
1	4067	1656	-268	15692
2	4067	-532	396	22948
1	4077	1644	-252	15696
2	4077	-440	324	22904
1	4087	1636	-268	15608
2	4087	-492	288	22872
1	4097	1688	-336	15744
2	4097	-540	216	23036
1	4107	1584	-308	15720
2	4107	-428	232	22976
1	4117	1532	-196	15812
2	4117	-480	396	22928
1	4127	1580	-328	15724
2	4127	-536	364	23036
1	4137	1600	-228	15608
2	4137	-604	216	22992
1	4147	1560	-272	15628
2	4147	-440	296	23092
1	4157	1652	-288	15672
2	4157	-432	296	22944
1	4167	1688	-236	15764
2	4167	-480	192	23064
1	4177	1732	-328	15676
2	4177	-488	252	23016
1	4187	1628	-232	15724
2	4187	-488	340	22872
1	4197	1600	-260	15756
2	4197	-476	324	23048
1	4207	1644	-252	15624
2	4207	-428	328	22860
1	4217	1632	-272	15820
2	4217	-552	332	22912
1	4227	1684	-284	15764
2	4227	-472	324	22924
1	4237	1652	-288	15656
2	4237	-468	372	23100
1	4247	1612	-316	15740
2	4247	-508	388	23108
1	4257	1616	-212	15688
2	4257	-448	448	23096
1	4267	1660	-256	15688
2	4267	-476	328	23048
1	4277	1660	-236	15892
2	4277	-556	220	22856
1	4287	1584	-260	15648
2	4287	-496	192	23096
1	4297	1568	-256	15860
2	4297	-544	400	22924
1	4307	1600	-288	15676
2	4307	-440	212	22896
1	4317	1580	-216	15676
2	4317	-532	284	23000
1	4327	1576	-304	15596
2	4327	-508	324	22948
1	4337	1660	-260	15700
2	4337	-480	236	23000
1	4347	1580	-404	15680
2	4347	-524	340	23052
1	4357	1612	-248	15620
2	4357	-528	436	22952
1	4367	1688	-264	15616
2	4367	-548	392	22884
1	4377	1680	-284	15740
2	4377	-520	348	22772
1	4387	1736	-212	15732
2	4387	-468	268	23184
1	4397	1680	-368	15592
2	4397	-444	280	22996
1	4407	1644	-276	15708
2	4407	-448	308	22952
1	4417	1624	-236	15728
2	4417	-428	464	23008
1	4427	1624	-236	15696
2	4427	-548	292	22928
1	4438	1552	-312	15696
2	4438	-460	364	22944
1	4447	1548	-308	15588
2	4447	-524	360	22880
1	4457	1640	-292	15660
2	4457	-476	220	22824
1	4467	1676	-320	15680
2	4467	-544	396	22928
1	4477	1572	-260	15676
2	4477	-536	368	22904
1	4487	1688	-296	15804
2	4487	-500	344	23012
1	4497	1672	-236	15588
2	4497	-512	360	23048
1	4507	1656	-264	15564
2	4507	-488	304	22908
1	4517	1672	-288	15652
2	4517	-456	296	22948
1	4527	1568	-352	15656
2	4527	-548	268	22996
1	4537	1712	-300	15596
2	4537	-584	348	22952
1	4547	1652	-200	15688
2	4547	-540	332	22844
1	4557	1608	-244	15884
2	4557	-452	364	22948
1	4567	1636	-284	15768
2	4567	-444	336	23104
1	4577	1656	-340	15708
2	4577	-500	336	22964
1	4587	1520	-308	15596
2	4587	-452	376	22984
1	4597	1616	-200	15784
2	4597	-424	392	22992
1	4608	1672	-196	15808
2	4608	-508	348	23004
1	4617	1612	-276	15748
2	4617	-552	232	23092
1	4627	1652	-196	15648
2	4627	-464	416	23084
1	4637	1564	-288	15656
2	4637	-556	192	22964
1	4647	1632	-300	15628
2	4647	-476	356	22848
1	4657	1608	-224	15640
2	4657	-448	372	22964
1	4667	1580	-260	15688
2	4667	-448	280	22908
1	4677	1704	-244	15624
2	4677	-504	304	22908
1	4687	1636	-244	15672
2	4687	-540	204	23128
1	4697	1608	-264	15640
2	4697	-468	260	22984
1	4707	1584	-328	15596
2	4707	-548	284	23076
1	4717	1636	-296	15744
2	4717	-472	248	22864
1	4727	1580	-380	15584
2	4727	-532	316	23000
1	4737	1676	-236	15820
2	4737	-440	268	22980
1	4747	1624	-188	15684
2	4747	-528	252	22964
1	4757	1732	-212	15580
2	4757	-476	376	23132
1	4767	1640	-324	15824
2	4767	-500	348	22860
1	4777	1616	-284	15816
2	4777	-476	408	22868
1	4787	1692	-264	15624
2	4787	-552	268	22940
1	4797	1664	-212	15756
2	4797	-456	160	22852
1	4807	1588	-264	15736
2	4807	-480	248	22928
1	4817	1680	-164	15608
2	4817	-460	308	23128
1	4827	1768	-344	15836
2	4827	-500	284	22988
1	4837	1580	-316	15632
2	4837	-436	264	22884
1	4847	1628	-344	15644
2	4847	-388	260	22964
1	4857	1584	-368	15640
2	4857	-524	332	23160
1	4867	1636	-412	15496
2	4867	-392	216	23004
1	4877	1620	-344	15636
2	4877	-532	368	22956
1	4887	1600	-276	15760
2	4887	-524	276	23028
1	4897	1592	-192	15664
2	4897	-496	280	23024
1	4907	1580	-244	15688
2	4907	-412	328	22832
1	4917	1636	-260	15908
2	4917	-512	332	22928
1	4927	1604	-272	15704
2	4927	-552	444	22972
1	4937	1584	-272	15648
2	4937	-460	288	23072
1	4947	1644	-232	15588
2	4947	-576	340	22876
1	4957	1612	-308	15620
2	4957	-464	276	23120
1	4967	1588	-276	15588
2	4967	-508	404	23056
1	4977	1556	-296	15760
2	4977	-540	256	23204
1	4987	1576	-244	15760
2	4987	-448	348	22804
1	4997	1536	-316	15692
2	4997	-516	288	22948
1	5007	1704	-316	15752
2	5007	-568	324	22976
1	5017	1684	-204	15728
2	5017	-408	396	22932
1	5027	1644	-268	15760
2	5027	-552	316	22888
1	5037	1700	-196	15888
2	5037	-452	192	22964
1	5047	1568	-256	15776
2	5047	-552	352	22988
1	5057	1712	-284	15840
2	5057	-464	344	23000
1	5067	1608	-364	15596
2	5067	-500	380	22836
1	5078	1660	-212	15720
2	5078	-448	380	23016
1	5087	1648	-192	15736
2	5087	-496	300	23000
1	5097	1636	-160	15796
2	5097	-488	308	23032
1	5107	1644	-272	15692
2	5107	-432	312	23056
1	5117	1528	-324	15708
2	5117	-572	392	23056
1	5127	1624	-240	15680
2	5127	-468	324	22924
1	5137	1624	-412	15728
2	5137	-464	204	23068
1	5147	1640	-256	15900
2	5147	-488	268	23144
1	5157	1608	-276	15632
2	5157	-416	292	23032
1	5167	1600	-200	15600
2	5167	-508	320	22908
1	5177	1680	-232	15664
2	5177	-408	344	22964
1	5187	1680	-268	15540
2	5187	-540	352	23032
1	5197	1608	-188	15660
2	5197	-436	308	22804
1	5207	1556	-316	15804
2	5207	-588	316	22840
1	5217	1684	-272	15804
2	5217	-508	264	23016
1	5227	1608	-200	15604
2	5227	-476	264	22980
1	5237	1656	-304	15632
2	5237	-520	256	23012
1	5248	1584	-252	15652
2	5248	-524	356	23072
1	5257	1564	-252	15756
2	5257	-512	432	23036
1	5267	1676	-256	15760
2	5267	-516	428	22964
1	5277	1636	-312	15672
2	5277	-464	296	23044
1	5287	1676	-220	15708
2	5287	-488	320	23000
1	5297	1648	-304	15720
2	5297	-508	336	22936
1	5307	1632	-276	15836
2	5307	-460	324	23140
1	5317	1556	-320	15648
2	5317	-504	292	22980
1	5327	1572	-296	15800
2	5327	-512	188	23068
1	5337	1616	-196	15660
2	5337	-484	324	22984
1	5347	1572	-256	15760
2	5347	-432	380	22928
1	5357	1692	-288	15628
2	5357	-532	420	23000
1	5367	1612	-212	15728
2	5367	-492	312	23020
1	5377	1640	-200	15680
2	5377	-400	252	22976
1	5387	1692	-300	15648
2	5387	-488	324	22980
1	5397	1652	-324	15780
2	5397	-520	324	22968
1	5407	1592	-264	15812
2	5407	-452	360	22984
1	5417	1696	-248	15652
2	5417	-424	296	22908
1	5427	1680	-300	15668
2	5427	-528	352	23008
1	5437	1768	-288	15620
2	5437	-468	284	23000
1	5447	1532	-144	15512
2	5447	-488	268	22976
1	5457	1544	-304	15716
2	5457	-440	300	23008
1	5467	1564	-308	15692
2	5467	-536	296	23040
1	5477	1580	-268	15572
2	5477	-488	372	22976
1	5487	1512	-252	15916
2	5487	-428	332	22924
1	5497	1600	-280	15520
2	5497	-516	272	23020
1	5507	1624	-284	15760
2	5507	-484	336	22956
1	5517	1604	-328	15628
2	5517	-568	300	22984
1	5527	1584	-232	15704
2	5527	-508	212	22908
1	5537	1632	-240	15752
2	5537	-432	304	22972
1	5547	1660	-244	15708
2	5547	-476	336	22984
1	5557	1600	-228	15652
2	5557	-528	400	22984
1	5567	1672	-212	15668
2	5567	-456	400	23040
1	5577	1612	-172	15644
2	5577	-456	312	22948
1	5587	1616	-216	15648
2	5587	-544	324	23096
1	5597	1588	-400	15744
2	5597	-476	256	22896
1	5607	1592	-268	15688
2	5607	-540	280	22928
1	5617	1632	-244	15632
2	5617	-508	380	22804
1	5627	1648	-240	15768
2	5627	-596	348	22936
1	5637	1680	-216	15732
2	5637	-512	268	23016
1	5647	1508	-296	15600
2	5647	-416	308	22948
1	5657	1668	-324	15708
2	5657	-516	228	23060
1	5667	1620	-236	15680
2	5667	-560	364	22964
1	5677	1564	-176	15700
2	5677	-496	364	22976
1	5687	1676	-324	15660
2	5687	-492	376	22912
1	5697	1600	-208	15720
2	5697	-576	320	22944
1	5707	1616	-304	15608
2	5707	-460	308	22908
1	5718	1676	-288	15600
2	5718	-524	388	23040
1	5727	1672	-296	15592
2	5727	-500	180	22888
1	5737	1664	-320	15708
2	5737	-480	288	22952
1	5747	1628	-248	15612
2	5747	-524	328	23052
1	5757	1684	-212	15672
2	5757	-388	328	22944
1	5767	1644	-196	15744
2	5767	-540	224	22992
1	5777	1604	-200	15644
2	5777	-420	300	22944
1	5787	1608	-340	15672
2	5787	-520	268	23000
1	5797	1740	-200	15792
2	5797	-452	304	23008
1	5807	1596	-256	15684
2	5807	-588	224	22944
1	5817	1628	-232	15724
2	5817	-532	364	22940
1	5827	1600	-216	15648
2	5827	-460	344	23064
1	5837	1592	-208	15620
2	5837	-516	280	22824
1	5847	1572	-216	15736
2	5847	-540	252	22868
1	5857	1688	-128	15644
2	5857	-536	272	23040
1	5867	1592	-236	15676
2	5867	-592	408	22996
1	5877	1612	-344	15720
2	5877	-452	280	23016
1	5888	1660	-324	15616
2	5888	-532	352	22940
1	5897	1720	-208	15612
2	5897	-468	408	23088
1	5907	1688	-224	15716
2	5907	-536	388	22916
1	5917	1564	-252	15736
2	5917	-528	308	22840
1	5927	1732	-232	15708
2	5927	-560	212	23036
1	5937	1604	-236	15820
2	5937	-500	228	23012
1	5947	1620	-272	15628
2	5947	-480	264	22972
1	5957	1672	-204	15648
2	5957	-488	332	22956
1	5967	1620	-264	15640
2	5967	-568	180	22968
1	5977	1616	-236	15696
2	5977	-516	448	23028
1	5987	1628	-224	15688
2	5987	-540	352	22940
1	5997	1680	-216	15632
2	5997	-548	316	22976
1	6007	1552	-340	15808
2	6007	-500	408	23040
1	6017	1636	-292	15584
2	6017	-508	328	22992
1	6027	1664	-220	15788
2	6027	-524	384	22996
1	6037	1616	-316	15744
2	6037	-440	216	22908
1	6047	1684	-344	15772
2	6047	-516	312	22980
1	6057	1528	-224	15720
2	6057	-496	356	22952
1	6067	1700	-260	15676
2	6067	-544	316	22928
1	6077	1664	-336	15436
2	6077	-536	328	22964
1	6087	1584	-180	15576
2	6087	-468	280	22920
1	6097	1532	-252	15644
2	6097	-532	248	23140
1	6107	1584	-244	15576
2	6107	-456	356	23040
1	6117	1624	-340	15640
2	6117	-504	332	23048
1	6127	1696	-308	15600
2	6127	-584	332	23004
1	6137	1584	-164	15568
2	6137	-504	284	22796
1	6147	1788	-348	15780
2	6147	-420	280	22964
1	6157	1592	-244	15544
2	6157	-516	320	22960
1	6167	1556	-264	15756
2	6167	-532	256	22972
1	6177	1652	-248	15704
2	6177	-456	304	22928
1	6187	1708	-156	15568
2	6187	-508	364	23032
1	6197	1572	-240	15604
2	6197	-512	368	23004
1	6207	1620	-232	15736
2	6207	-560	296	22940
1	6217	1636	-212	15616
2	6217	-484	376	22860
1	6227	1688	-288	15704
2	6227	-488	232	22864
1	6237	1552	-260	15756
2	6237	-472	360	22920
1	6247	1700	-264	15824
2	6247	-352	348	22964
1	6257	1688	-216	15676
2	6257	-520	232	22924
1	6267	1584	-300	15648
2	6267	-476	252	23060
1	6277	1696	-264	15728
2	6277	-608	208	22968
1	6287	1612	-332	15864
2	6287	-532	380	22892
1	6297	1644	-216	15572
2	6297	-504	372	23008
1	6307	1624	-244	15712
2	6307	-504	216	23016
1	6317	1584	-236	15720
2	6317	-504	264	22912
1	6327	1700	-236	15492
2	6327	-512	256	22888
1	6337	1568	-252	15696
2	6337	-536	248	23036
1	6347	1684	-288	15768
2	6347	-468	328	22924
1	6358	1628	-276	15672
2	6358	-484	164	22908
1	6367	1588	-248	15600
2	6367	-468	228	22820
1	6377	1696	-260	15604
2	6377	-500	352	23012
1	6387	1664	-248	15660
2	6387	-524	304	22952
1	6397	1692	-256	15716
2	6397	-604	296	22996
1	6407	1636	-340	15656
2	6407	-400	344	22968
1	6417	1596	-276	15616
2	6417	-556	276	22992
1	6427	1676	-268	15628
2	6427	-648	356	23072
1	6437	1656	-236	15792
2	6437	-448	372	23028
1	6447	1668	-320	15784
2	6447	-504	384	22912
1	6457	1696	-312	15696
2	6457	-632	300	22904
1	6467	1564	-360	15692
2	6467	-560	372	22920
1	6477	1576	-280	15656
2	6477	-440	272	22828
1	6487	1560	-256	15664
2	6487	-532	244	22876
1	6497	1564	-268	15728
2	6497	-516	244	23048
1	6507	1708	-348	15628
2	6507	-400	328	22968
1	6517	1696	-280	15720
2	6517	-464	352	23080
1	6528	1544	-352	15632
2	6528	-500	452	23020
1	6537	1644	-160	15812
2	6537	-496	348	23016
1	6547	1636	-308	15796
2	6547	-456	328	23024
1	6557	1676	-272	15604
2	6557	-484	216	23112
1	6567	1644	-376	15512
2	6567	-492	404	22932
1	6577	1624	-308	15616
2	6577	-448	292	22956
1	6587	1612	-216	15680
2	6587	-492	232	22980
1	6597	1604	-304	15608
2	6597	-508	308	22812
1	6607	1680	-216	15784
2	6607	-524	328	22996
1	6617	1700	-264	15712
2	6617	-556	308	22992
1	6627	1612	-308	15828
2	6627	-460	360	22988
1	6637	1608	-280	15684
2	6637	-444	316	23004
1	6647	1636	-356	15600
2	6647	-460	316	23064
1	6657	1548	-188	15680
2	6657	-516	300	23104
1	6667	1684	-264	15592
2	6667	-508	208	23036
1	6677	1632	-328	15760
2	6677	-520	412	22936
1	6687	1684	-172	15664
2	6687	-532	384	22896
1	6697	1628	-244	15644
2	6697	-432	380	22952
1	6707	1624	-264	15804
2	6707	-484	232	22968
1	6717	1588	-308	15628
2	6717	-496	388	22956
1	6727	1608	-308	15632
2	6727	-468	348	23036
1	6737	1668	-296	15820
2	6737	-488	144	23020
1	6747	1588	-260	15592
2	6747	-472	292	23008
1	6757	1648	-248	15644
2	6757	-412	244	22948
1	6767	1540	-304	15812
2	6767	-492	284	22832
1	6777	1584	-216	15648
2	6777	-416	256	22916
1	6787	1608	-204	15632
2	6787	-524	300	23020
1	6797	1608	-188	15784
2	6797	-460	316	22908
1	6807	1688	-340	15648
2	6807	-532	324	22984
1	6817	1580	-196	15672
2	6817	-544	220	22836
1	6827	1652	-316	15700
2	6827	-584	280	22912
1	6837	1632	-236	15648
2	6837	-500	304	22952
1	6847	1656	-360	15808
2	6847	-524	272	22880
1	6857	1676	-272	15760
2	6857	-488	388	23008
1	6867	1624	-264	15736
2	6867	-580	176	22932
1	6877	1620	-300	15776
2	6877	-548	368	22916
1	6887	1528	-188	15532
2	6887	-544	348	22976
1	6897	1656	-308	15636
2	6897	-476	320	23060
1	6907	1560	-256	15624
2	6907	-452	324	22848
1	6917	1540	-232	15780
2	6917	-512	372	22892
1	6927	1604	-184	15748
2	6927	-568	212	22996
1	6937	1628	-400	15640
2	6937	-444	408	23032
1	6947	1644	-340	15744
2	6947	-464	364	22884
1	6957	1500	-220	15716
2	6957	-580	276	22976
1	6967	1636	-212	15740
2	6967	-444	280	23068
1	6977	1684	-336	15696
2	6977	-552	280	22916
1	6987	1636	-272	15784
2	6987	-456	244	22896
1	6998	1660	-312	15696
2	6998	-516	344	22976
1	7007	1620	-296	15836
2	7007	-436	316	22928
1	7017	1748	-344	15668
2	7017	-492	292	23016
1	7027	1624	-288	15568
2	7027	-528	320	23124
1	7037	1716	-264	15604
2	7037	-460	324	23044
1	7047	1600	-272	15592
2	7047	-444	236	23028
1	7057	1620	-212	15796
2	7057	-436	300	22896
1	7067	1748	-276	15580
2	7067	-504	308	22904
1	7077	1616	-252	15560
2	7077	-460	308	23048
1	7087	1692	-264	15688
2	7087	-496	256	22872
1	7097	1636	-252	15812
2	7097	-524	272	23228
1	7107	1556	-288	15680
2	7107	-540	344	22928
1	7117	1676	-332	15888
2	7117	-416	292	23000
1	7127	1632	-216	15604
2	7127	-540	372	23096
1	7137	1664	-200	15720
2	7137	-476	228	22888
1	7147	1592	-264	15644
2	7147	-508	392	22980
1	7157	1712	-228	15720
2	7157	-472	388	23044
1	7168	1664	-252	15788
2	7168	-388	320	23028
1	7177	1544	-280	15752
2	7177	-524	364	22972
1	7187	1580	-296	15660
2	7187	-468	264	23064
1	7197	1540	-280	15732
2	7197	-460	392	22876
1	7207	1512	-296	15704
2	7207	-500	308	23012
1	7217	1572	-240	15756
2	7217	-552	248	22944
1	7227	1616	-364	15700
2	7227	-516	336	23036
1	7237	1716	-232	15668
2	7237	-512	320	23076
1	7247	1600	-252	15640
2	7247	-420	336	22964
1	7257	1576	-216	15740
2	7257	-524	376	22876
1	7267	1688	-304	15740
2	7267	-552	336	22916
1	7277	1584	-284	15664
2	7277	-472	300	23016
1	7287	1648	-184	15816
2	7287	-520	340	22908
1	7297	1688	-288	15640
2	7297	-480	344	23016
1	7307	1556	-372	15708
2	7307	-472	280	23000
1	7317	1648	-280	15752
2	7317	-592	252	23040
1	7327	1644	-308	15804
2	7327	-512	276	22980
1	7337	1596	-260	15672
2	7337	-520	344	22940
1	7347	1592	-200	15584
2	7347	-508	288	22896
1	7357	1712	-360	15780
2	7357	-396	368	23076
1	7367	1608	-260	15800
2	7367	-464	388	22908
1	7377	1684	-332	15780
2	7377	-476	288	22976
1	7387	1652	-352	15812
2	7387	-516	312	22888
1	7397	1588	-228	15696
2	7397	-568	264	23012
1	7407	1704	-312	15760
2	7407	-392	368	22944
1	7417	1640	-360	15576
2	7417	-552	336	22948
1	7427	1704	-332	15852
2	7427	-536	312	22940
1	7437	1648	-236	15660
2	7437	-584	288	23076
1	7447	1700	-256	15812
2	7447	-400	280	22852
1	7457	1688	-220	15708
2	7457	-428	288	22976
1	7467	1676	-348	15696
2	7467	-436	260	22940
1	7477	1668	-264	15556
2	7477	-548	292	22916
1	7487	1648	-332	15800
2	7487	-516	424	22904
1	7497	1676	-244	15712
2	7497	-492	304	22976
1	7507	1648	-312	15724
2	7507	-588	352	23036
1	7517	1660	-284	15676
2	7517	-496	240	22964
1	7527	1708	-348	15824
2	7527	-476	448	22956
1	7537	1712	-256	15732
2	7537	-512	336	22960
1	7547	1592	-324	15748
2	7547	-528	260	23012
1	7557	1732	-292	15640
2	7557	-544	340	23024
1	7567	1676	-268	15632
2	7567	-412	400	23048
1	7577	1620	-220	15696
2	7577	-532	356	23088
1	7587	1740	-240	15688
2	7587	-484	300	23044
1	7597	1564	-248	15804
2	7597	-424	264	22904
1	7607	1616	-268	15680
2	7607	-460	284	22968
1	7617	1592	-304	15660
2	7617	-584	444	22988
1	7627	1652	-348	15760
2	7627	-488	348	22936
1	7638	1552	-252	15728
2	7638	-576	384	22904
1	7647	1660	-356	15624
2	7647	-456	308	22872
1	7657	1672	-224	15640
2	7657	-492	380	23124
1	7667	1668	-312	15624
2	7667	-464	368	22880
1	7677	1716	-276	15728
2	7677	-448	272	22948
1	7687	1700	-256	15656
2	7687	-528	352	22920
1	7697	1592	-252	15764
2	7697	-592	340	22956
1	7707	1660	-228	15716
2	7707	-412	272	23060
1	7717	1660	-200	15632
2	7717	-436	304	22984
1	7727	1704	-264	15740
2	7727	-472	432	22908
1	7737	1540	-288	15760
2	7737	-508	252	23136
1	7747	1696	-352	15796
2	7747	-444	224	23032
1	7757	1600	-204	15740
2	7757	-484	324	22924
1	7767	1624	-332	15704
2	7767	-508	352	22928
1	7777	1712	-364	15592
2	7777	-500	172	22888
1	7787	1628	-244	15688
2	7787	-456	296	22956
1	7797	1584	-328	15716
2	7797	-424	284	23020
1	7808	1656	-316	15616
2	7808	-456	356	22956
1	7817	1684	-236	15704
2	7817	-504	312	22992
1	7827	1680	-296	15616
2	7827	-472	280	23060
1	7837	1664	-300	15812
2	7837	-552	284	22936
1	7847	1492	-188	15636
2	7847	-468	208	23036
1	7857	1644	-276	15784
2	7857	-536	388	22956
1	7867	1620	-272	15704
2	7867	-572	328	22968
1	7877	1628	-296	15836
2	7877	-524	320	23028
1	7887	1728	-272	15704
2	7887	-496	228	22968
1	7897	1716	-344	15900
2	7897	-472	272	22952
1	7907	1568	-228	15700
2	7907	-592	316	22884
1	7917	1600	-252	15700
2	7917	-432	336	23088
1	7927	1752	-312	15580
2	7927	-360	252	22920
1	7937	1660	-304	15736
2	7937	-532	332	23060
1	7947	1584	-236	15776
2	7947	-524	256	22936
1	7957	1632	-280	15744
2	7957	-600	328	22936
1	7967	1620	-328	15804
2	7967	-516	296	22972
1	7977	1660	-260	15624
2	7977	-452	304	23076
1	7987	1688	-272	15672
2	7987	-376	280	23056
1	7997	1672	-204	15832
2	7997	-576	240	22968
1	8007	1624	-292	15760
2	8007	-552	296	23032
1	8017	1616	-288	15716
2	8017	-532	384	23028
1	8027	1652	-356	15744
2	8027	-520	264	22912
1	8037	1740	-268	15564
2	8037	-472	356	22960
1	8047	1472	-220	15712
2	8047	-400	412	22916
1	8057	1596	-240	15724
2	8057	-488	316	22852
1	8067	1660	-236	15724
2	8067	-456	236	23036
1	8077	1640	-216	15688
2	8077	-380	260	23108
1	8087	1672	-256	15684
2	8087	-500	324	23076
1	8097	1656	-156	15812
2	8097	-536	280	23120
1	8107	1596	-224	15772
2	8107	-468	380	22896
1	8117	1600	-232	15664
2	8117	-416	368	23004
1	8127	1572	-252	15848
2	8127	-544	268	22896
1	8137	1600	-312	15636
2	8137	-496	384	23016
1	8147	1560	-332	15736
2	8147	-468	284	22884
1	8157	1640	-344	15712
2	8157	-488	380	23004
1	8167	1668	-236	15680
2	8167	-516	320	23000
1	8177	1732	-252	15748
2	8177	-488	320	22944
1	8187	1664	-264	15680
2	8187	-536	200	23008
1	8197	1660	-196	15724
2	8197	-396	352	23072
1	8207	1572	-256	15496
2	8207	-432	360	22944
1	8217	1760	-272	15808
2	8217	-428	284	22888
1	8227	1660	-256	15756
2	8227	-532	280	22856
1	8237	1632	-256	15656
2	8237	-428	324	22960
1	8247	1660	-256	15680
2	8247	-528	248	23000
1	8257	1644	-292	15720
2	8257	-452	360	22976
1	8267	1664	-240	15584
2	8267	-528	480	22936
1	8278	1548	-204	15804
2	8278	-480	400	22948
1	8287	1508	-244	15696
2	8287	-488	292	22968
1	8297	1672	-264	15720
2	8297	-488	316	23020
1	8307	1660	-308	15800
2	8307	-580	316	23020
1	8317	1684	-280	15764
2	8317	-500	420	23068
1	8327	1588	-268	15640
2	8327	-500	368	23060
1	8337	1712	-240	15560
2	8337	-488	340	22904
1	8347	1636	-356	15672
2	8347	-504	276	23072
1	8357	1704	-352	15600
2	8357	-556	412	22948
1	8367	1520	-304	15748
2	8367	-448	344	22924
1	8377	1628	-168	15704
2	8377	-496	368	22964
1	8387	1664	-348	15560
2	8387	-516	316	23128
1	8397	1684	-348	15524
2	8397	-484	352	22964
1	8407	1620	-296	15632
2	8407	-468	236	23044
1	8417	1640	-232	15832
2	8417	-412	252	22992
1	8427	1724	-148	15708
2	8427	-500	252	22920
1	8437	1644	-192	15664
2	8437	-512	256	22960
1	8448	1564	-300	15704
2	8448	-492	340	23004
1	8457	1584	-280	15640
2	8457	-496	380	23028
1	8467	1572	-248	15620
2	8467	-468	268	23152
1	8477	1576	-212	15688
2	8477	-596	352	22848
1	8487	1688	-296	15596
2	8487	-472	276	22916
1	8497	1624	-248	15672
2	8497	-568	296	23044
1	8507	1704	-236	15644
2	8507	-444	356	23068
1	8517	1664	-232	15656
2	8517	-432	296	22776
1	8527	1652	-232	15656
2	8527	-488	324	23036
1	8537	1716	-192	15744
2	8537	-540	280	22812
1	8547	1660	-196	15536
2	8547	-476	340	23048
1	8557	1676	-248	15744
2	8557	-600	360	22900
1	8567	1588	-384	15832
2	8567	-508	304	22908
1	8577	1592	-288	15636
2	8577	-600	368	23020
1	8587	1644	-280	15816
2	8587	-568	244	22952
1	8597	1656	-212	15672
2	8597	-512	304	22908
1	8607	1652	-268	15696
2	8607	-600	308	22992
1	8617	1588	-236	15724
2	8617	-492	384	23080
1	8627	1704	-312	15812
2	8627	-520	312	23016
1	8637	1584	-212	15660
2	8637	-544	256	22848
1	8647	1660	-216	15696
2	8647	-448	296	22956
1	8657	1644	-300	15760
2	8657	-548	328	22936
1	8667	1628	-276	15564
2	8667	-456	160	23104
1	8677	1624	-228	15700
2	8677	-492	260	22888
1	8687	1584	-296	15692
2	8687	-572	280	22940
1	8697	1636	-364	15784
2	8697	-460	312	23028
1	8707	1608	-260	15804
2	8707	-508	372	22996
1	8717	1656	-244	15784
2	8717	-452	456	22768
1	8727	1556	-272	15556
2	8727	-480	400	22896
1	8737	1604	-260	15744
2	8737	-460	304	23036
1	8747	1616	-232	15692
2	8747	-488	344	23080
1	8757	1636	-328	15572
2	8757	-576	344	22956
1	8767	1700	-312	15612
2	8767	-536	324	23028
1	8777	1568	-292	15788
2	8777	-572	320	23064
1	8787	1680	-240	15644
2	8787	-512	384	22916
1	8797	1712	-260	15772
2	8797	-400	376	23080
1	8807	1556	-312	15688
2	8807	-456	288	22784
1	8817	1564	-300	15744
2	8817	-556	388	22892
1	8827	1572	-200	15644
2	8827	-608	252	22868
1	8837	1688	-264	15816
2	8837	-588	336	23020
1	8847	1644	-276	15664
2	8847	-456	332	22880
1	8857	1592	-324	15736
2	8857	-408	212	22948
1	8867	1548	-276	15780
2	8867	-472	272	23088
1	8877	1600	-176	15724
2	8877	-612	236	22980
1	8887	1664	-220	15728
2	8887	-448	408	23088
1	8897	1564	-208	15704
2	8897	-412	336	22852
1	8907	1556	-236	15804
2	8907	-560	380	22880
1	8918	1588	-248	15544
2	8918	-476	332	23032
1	8927	1516	-164	15636
2	8927	-564	324	22908
1	8937	1636	-236	15612
2	8937	-512	252	22980
1	8947	1608	-252	15724
2	8947	-584	376	22860
1	8957	1644	-292	15780
2	8957	-480	320	22892
1	8967	1672	-268	15732
2	8967	-448	328	22972
1	8977	1660	-276	15744
2	8977	-468	272	23028
1	8987	1648	-212	15704
2	8987	-532	324	23244
1	8997	1632	-252	15584
2	8997	-432	336	23024
1	9007	1652	-208	15808
2	9007	-492	248	22896
1	9017	1716	-284	15832
2	9017	-532	340	22972
1	9027	1664	-212	15724
2	9027	-524	340	22848
1	9037	1652	-196	15648
2	9037	-480	340	22988
1	9047	1648	-280	15584
2	9047	-460	308	22852
1	9057	1596	-340	15764
2	9057	-480	356	23028
1	9067	1740	-172	15708
2	9067	-532	196	22948
1	9077	1616	-356	15616
2	9077	-448	300	22928
1	9088	1604	-272	15652
2	9088	-436	288	22936
1	9097	1572	-356	15548
2	9097	-532	176	22976
1	9107	1736	-332	15748
2	9107	-448	244	22836
1	9117	1620	-228	15740
2	9117	-552	320	23040
1	9127	1668	-228	15788
2	9127	-508	208	22988
1	9137	1720	-236	15696
2	9137	-480	324	23016
1	9147	1576	-272	15668
2	9147	-512	316	22964
1	9157	1588	-320	15668
2	9157	-464	256	22976
1	9167	1668	-204	15812
2	9167	-504	244	22916
1	9177	1620	-256	15568
2	9177	-560	256	22904
1	9187	1640	-280	15596
2	9187	-496	324	22884
1	9197	1600	-212	15796
2	9197	-432	272	22948
1	9207	1596	-292	15628
2	9207	-520	264	23024
1	9217	1660	-268	15616
2	9217	-436	284	23040
1	9227	1700	-260	15672
2	9227	-552	276	23016
1	9237	1532	-292	15832
2	9237	-440	332	22928
1	9247	1636	-280	15724
2	9247	-500	256	22928
1	9257	1632	-340	15728
2	9257	-540	384	22812
1	9267	1676	-212	15680
2	9267	-488	156	22976
1	9277	1568	-204	15756
2	9277	-432	412	22916
1	9287	1616	-264	15656
2	9287	-468	328	22952
1	9297	1628	-260	15716
2	9297	-520	252	23024
1	9307	1612	-344	15832
2	9307	-368	376	22976
1	9317	1636	-276	15516
2	9317	-592	324	22980
1	9327	1592	-252	15708
2	9327	-484	312	23036
1	9337	1696	-292	15864
2	9337	-472	416	22996
1	9347	1624	-324	15792
2	9347	-392	400	23108
1	9357	1564	-228	15608
2	9357	-428	332	23084
1	9367	1684	-248	15624
2	9367	-560	404	22924
1	9377	1644	-384	15640
2	9377	-484	376	22956
1	9387	1600	-268	15804
2	9387	-504	424	23088
1	9397	1648	-208	15780
2	9397	-540	332	22936
1	9407	1624	-236	15656
2	9407	-420	184	23016
1	9417	1608	-248	15772
2	9417	-488	336	22924
1	9427	1696	-308	15696
2	9427	-504	412	23084
1	9437	1604	-260	15728
2	9437	-436	412	22864
1	9447	1620	-280	15752
2	9447	-508	320	22908
1	9457	1656	-316	15684
2	9457	-544	288	22992
1	9467	1604	-280	15688
2	9467	-460	284	22896
1	9477	1628	-324	15744
2	9477	-472	380	22948
1	9487	1680	-308	15836
2	9487	-500	392	23112
1	9497	1628	-192	15720
2	9497	-528	252	22988
1	9507	1652	-192	15668
2	9507	-572	336	23044
1	9517	1588	-296	15668
2	9517	-508	272	23032
1	9527	1744	-184	15648
2	9527	-488	196	22920
1	9537	1660	-148	15648
2	9537	-536	440	22968
1	9547	1592	-272	15816
2	9547	-452	224	23096
1	9558	1544	-260	15676
2	9558	-508	324	23012
1	9567	1600	-288	15616
2	9567	-464	312	22944
1	9577	1676	-268	15804
2	9577	-568	292	23000
1	9587	1644	-224	15932
2	9587	-488	284	23048
1	9597	1612	-300	15800
2	9597	-500	288	22864
1	9607	1500	-312	15780
2	9607	-384	268	22924
1	9617	1576	-220	15672
2	9617	-576	372	22940
1	9627	1708	-228	15752
2	9627	-444	308	23020
1	9637	1568	-180	15664
2	9637	-584	332	22912
1	9647	1652	-280	15708
2	9647	-432	332	22888
1	9657	1732	-252	15716
2	9657	-516	252	23040
1	9667	1604	-280	15664
2	9667	-476	372	22956
1	9677	1596	-244	15820
2	9677	-560	380	22920
1	9687	1572	-220	15620
2	9687	-600	392	23012
1	9697	1640	-264	15684
2	9697	-448	424	22864
1	9707	1704	-216	15496
2	9707	-488	284	23044
1	9717	1600	-256	15772
2	9717	-576	268	22884
1	9728	1648	-228	15668
2	9728	-564	336	23040
1	9737	1632	-208	15868
2	9737	-412	332	22892
1	9747	1636	-200	15660
2	9747	-540	248	23088
1	9757	1628	-204	15688
2	9757	-452	268	22884
1	9767	1548	-212	15684
2	9767	-528	348	22788
1	9777	1628	-344	15776
2	9777	-500	308	22928
1	9787	1556	-372	15568
2	9787	-412	324	22992
1	9797	1664	-228	15616
2	9797	-480	344	22904
1	9807	1672	-324	15760
2	9807	-420	364	22920
1	9817	1736	-252	15636
2	9817	-436	404	22876
1	9827	1676	-192	15712
2	9827	-524	272	22868
1	9837	1692	-296	15812
2	9837	-472	308	23012
1	9847	1688	-256	15696
2	9847	-448	244	22976
1	9857	1628	-304	15636
2	9857	-476	392	23056
1	9867	1648	-208	15676
2	9867	-476	268	22980
1	9877	1608	-192	15732
2	9877	-532	320	23112
1	9887	1600	-208	15604
2	9887	-508	300	23020
1	9897	1516	-276	15816
2	9897	-460	336	22972
1	9907	1644	-276	15660
2	9907	-432	308	22896
1	9917	1656	-252	15796
2	9917	-552	304	22964
1	9927	1536	-236	15740
2	9927	-524	344	22968
1	9937	1592	-356	15556
2	9937	-452	244	23020
1	9947	1664	-352	15576
2	9947	-380	196	22948
1	9957	1660	-316	15652
2	9957	-444	280	23072
1	9967	1680	-348	15680
2	9967	-484	196	23008
1	9977	1604	-240	15816
2	9977	-588	356	22916
1	9987	1700	-320	15744
2	9987	-516	336	22896
1	9997	1644	-192	15740
2	9997	-508	328	22956
1	10007	1656	-300	15712
2	10007	-440	308	23064
1	10017	1640	-268	15696
2	10017	-540	308	22956
1	10027	1560	-316	15728
2	10027	-404	232	22940
1	10037	1536	-276	15728
2	10037	-556	300	23152
1	10047	1720	-236	15708
2	10047	-512	364	23076
1	10057	1568	-276	15720
2	10057	-440	324	22968
1	10067	1564	-208	15840
2	10067	-500	280	22884
1	10077	1680	-248	15720
2	10077	-424	280	22928
1	10087	1624	-252	15640
2	10087	-428	240	23028
1	10097	1652	-224	15732
2	10097	-432	344	23100
1	10107	1672	-208	15668
2	10107	-520	296	22980
1	10117	1580	-384	15772
2	10117	-452	292	22976
1	10127	1656	-308	15616
2	10127	-548	396	22936
1	10137	1616	-240	15708
2	10137	-484	316	22964
1	10147	1600	-276	15644
2	10147	-440	300	22912
1	10157	1688	-228	15560
2	10157	-440	344	23180
1	10167	1720	-304	15640
2	10167	-552	220	23104
1	10177	1680	-260	15740
2	10177	-512	264	23040
1	10187	1656	-172	15804
2	10187	-520	364	22992
1	10198	1680	-256	15736
2	10198	-528	304	23044
1	10207	1708	-320	15884
2	10207	-448	312	23040
1	10217	1616	-216	15644
2	10217	-564	204	23076
1	10227	1580	-228	15820
2	10227	-480	324	23072
1	10237	1724	-248	15536
2	10237	-428	340	22944
1	10247	1556	-308	15644
2	10247	-460	304	23152
1	10257	1612	-200	15688
2	10257	-432	332	23048
1	10267	1572	-312	15708
2	10267	-428	344	22948
1	10277	1620	-264	15620
2	10277	-556	312	22836
1	10287	1688	-196	15604
2	10287	-448	320	23024
1	10297	1576	-188	15784
2	10297	-484	336	22888
1	10307	1680	-324	15724
2	10307	-464	392	23100
1	10317	1636	-248	15844
2	10317	-624	260	23004
1	10327	1712	-328	15760
2	10327	-448	284	22852
1	10337	1608	-372	15592
2	10337	-348	228	23064
1	10347	1504	-256	15608
2	10347	-624	272	22956
1	10357	1732	-280	15836
2	10357	-512	304	22832
1	10368	1696	-296	15716
2	10368	-456	252	22976
1	10377	1588	-272	15664
2	10377	-520	288	22992
1	10387	1680	-220	15568
2	10387	-508	312	22948
1	10397	1624	-280	15560
2	10397	-484	356	23060
1	10407	1616	-288	15684
2	10407	-420	440	22908
1	10417	1684	-308	15672
2	10417	-536	396	22944
1	10427	1600	-344	15528
2	10427	-420	308	22948
1	10437	1644	-204	15612
2	10437	-480	396	23064
1	10447	1616	-260	15580
2	10447	-500	388	22964
1	10457	1528	-368	15704
2	10457	-484	420	23048
1	10467	1620	-220	15704
2	10467	-448	284	22956
1	10477	1588	-216	15752
2	10477	-464	440	22856
1	10487	1640	-312	15656
2	10487	-480	304	23128
1	10497	1652	-208	15656
2	10497	-428	340	22868
1	10507	1648	-328	15672
2	10507	-452	184	22900
1	10517	1552	-292	15704
2	10517	-488	312	22940
1	10527	1688	-248	15740
2	10527	-440	336	23076
1	10537	1660	-380	15796
2	10537	-500	308	22936
1	10547	1676	-296	15648
2	10547	-492	268	23032
1	10557	1628	-340	15732
2	10557	-432	268	22924
1	10567	1628	-264	15800
2	10567	-456	340	22916
1	10577	1620	-196	15672
2	10577	-472	236	22984
1	10587	1652	-292	15656
2	10587	-552	380	22876
1	10597	1636	-212	15672
2	10597	-588	352	22840
1	10607	1644	-252	15568
2	10607	-492	284	23008
1	10617	1488	-288	15704
2	10617	-408	336	22960
1	10627	1664	-276	15744
2	10627	-572	336	22924
1	10637	1568	-284	15640
2	10637	-484	328	22976
1	10647	1608	-344	15616
2	10647	-376	312	22944
1	10657	1548	-360	15660
2	10657	-468	312	22948
1	10667	1576	-360	15768
2	10667	-532	392	22916
1	10677	1620	-264	15592
2	10677	-448	240	22972
1	10687	1568	-252	15616
2	10687	-512	324	22928
1	10697	1576	-292	15684
2	10697	-384	328	22904
1	10707	1620	-256	15724
2	10707	-536	480	22992
1	10717	1652	-240	15540
2	10717	-488	256	23076
1	10727	1604	-252	15712
2	10727	-508	316	22932
1	10737	1652	-284	15728
2	10737	-508	332	22948
1	10747	1616	-312	15820
2	10747	-492	336	22928
1	10757	1636	-236	15748
2	10757	-492	280	22968
1	10767	1652	-320	15744
2	10767	-508	272	22940
1	10777	1624	-276	15688
2	10777	-544	372	22976
1	10787	1644	-252	15648
2	10787	-444	304	23052
1	10797	1688	-200	15528
2	10797	-532	452	22996
1	10807	1636	-240	15684
2	10807	-464	328	23008
1	10817	1716	-364	15720
2	10817	-476	328	22956
1	10827	1628	-280	15700
2	10827	-424	336	22896
1	10838	1632	-408	15648
2	10838	-524	276	23020
1	10847	1772	-272	15564
2	10847	-560	256	22964
1	10857	1672	-184	15628
2	10857	-460	296	22980
1	10867	1700	-260	15760
2	10867	-448	304	22968
1	10877	1588	-340	15948
2	10877	-540	340	23036
1	10887	1648	-280	15724
2	10887	-416	212	22876
1	10897	1640	-392	15820
2	10897	-592	360	22952
1	10907	1628	-240	15652
2	10907	-536	252	22992
1	10917	1576	-284	15736
2	10917	-456	336	22804
1	10927	1700	-204	15680
2	10927	-464	312	22940
1	10937	1720	-212	15728
2	10937	-480	372	22980
1	10947	1572	-208	15608
2	10947	-380	308	22992
1	10957	1676	-312	15664
2	10957	-508	240	23064
1	10967	1576	-336	15676
2	10967	-472	260	22848
1	10977	1588	-280	15676
2	10977	-564	396	22920
1	10987	1628	-296	15736
2	10987	-468	348	23072
1	10997	1668	-224	15764
2	10997	-508	352	22912
1	11008	1608	-216	15840
2	11008	-372	292	22996
1	11017	1696	-320	15716
2	11017	-412	436	22880
1	11027	1648	-284	15780
2	11027	-448	312	23068
1	11037	1632	-224	15712
2	11037	-468	316	23064
1	11047	1616	-244	15772
2	11047	-508	348	22932
1	11057	1640	-264	15804
2	11057	-416	284	22780
1	11067	1692	-304	15692
2	11067	-412	208	22924
1	11077	1700	-284	15772
2	11077	-508	364	23004
1	11087	1580	-308	15788
2	11087	-572	120	23060
1	11097	1644	-268	15772
2	11097	-620	324	23092
1	11107	1636	-276	15608
2	11107	-472	276	22948
1	11117	1708	-276	15588
2	11117	-448	352	22924
1	11127	1636	-244	15776
2	11127	-464	320	22992
1	11137	1640	-312	15700
2	11137	-560	336	22856
1	11147	1668	-392	15668
2	11147	-444	368	22924
1	11157	1672	-248	15696
2	11157	-472	356	23000
1	11167	1628	-172	15816
2	11167	-476	344	22948
1	11177	1652	-232	15752
2	11177	-516	264	23012
1	11187	1720	-228	15772
2	11187	-524	268	22928
1	11197	1576	-272	15860
2	11197	-600	396	22972
1	11207	1672	-312	15644
2	11207	-612	348	22980
1	11217	1584	-280	15644
2	11217	-580	264	23048
1	11227	1688	-244	15672
2	11227	-416	384	22904
1	11237	1612	-208	15756
2	11237	-444	272	23060
1	11247	1632	-268	15692
2	11247	-428	352	22884
1	11257	1704	-264	15748
2	11257	-568	320	22956
1	11267	1680	-244	15844
2	11267	-532	352	23040
1	11277	1612	-292	15640
2	11277	-532	244	23020
1	11287	1552	-300	15868
2	11287	-524	336	23112
1	11297	1708	-256	15568
2	11297	-496	340	22920
1	11307	1664	-220	15820
2	11307	-504	348	23032
1	11317	1644	-272	15760
2	11317	-572	388	22932
1	11327	1624	-252	15568
2	11327	-520	288	23028
1	11337	1548	-288	15640
2	11337	-428	296	23000
1	11347	1644	-312	15640
2	11347	-472	348	23040
1	11357	1656	-276	15700
2	11357	-456	344	23060
1	11367	1636	-220	15672
2	11367	-416	264	23152
1	11377	1588	-272	15860
2	11377	-412	320	22868
1	11387	1688	-244	15664
2	11387	-544	300	23100
1	11397	1600	-176	15648
2	11397	-480	328	22872
1	11407	1576	-320	15648
2	11407	-604	276	22960
1	11417	1572	-324	15652
2	11417	-524	400	22936
1	11427	1628	-228	15740
2	11427	-400	372	22884
1	11437	1592	-212	15728
2	11437	-544	304	22888
1	11447	1652	-244	15744
2	11447	-440	352	23000
1	11457	1568	-248	15640
2	11457	-488	344	23052
1	11467	1576	-280	15748
2	11467	-540	172	22964
1	11478	1740	-212	15688
2	11478	-420	336	22964
1	11487	1712	-264	15600
2	11487	-484	240	22856
1	11497	1664	-264	15876
2	11497	-484	296	22988
1	11507	1664	-244	15600
2	11507	-468	276	22972
1	11517	1632	-252	15556
2	11517	-532	392	22952
1	11527	1620	-208	15608
2	11527	-532	236	22932
1	11537	1628	-180	15592
2	11537	-440	292	22968
1	11547	1596	-356	15640
2	11547	-484	280	23012
1	11557	1652	-304	15616
2	11557	-460	436	23024
1	11567	1644	-228	15736
2	11567	-528	280	23056
1	11577	1592	-312	15672
2	11577	-532	324	22948
1	11587	1664	-400	15672
2	11587	-488	308	23020
1	11597	1568	-272	15780
2	11597	-500	276	22976
1	11607	1648	-256	15648
2	11607	-528	364	22944
1	11617	1696	-240	15632
2	11617	-524	428	22988
1	11627	1580	-300	15640
2	11627	-492	260	23036
1	11637	1532	-212	15704
2	11637	-468	352	22936
1	11648	1708	-280	15592
2	11648	-524	308	22908
1	11657	1660	-320	15596
2	11657	-404	304	23140
1	11667	1576	-232	15676
2	11667	-536	392	22944
1	11677	1632	-296	15608
2	11677	-492	328	22872
1	11687	1668	-240	15700
2	11687	-600	256	22852
1	11697	1768	-172	15644
2	11697	-500	304	23008
1	11707	1512	-332	15684
2	11707	-488	268	23020
1	11717	1680	-376	15752
2	11717	-524	272	23036
1	11727	1620	-328	15724
2	11727	-452	312	22888
1	11737	1616	-300	15732
2	11737	-576	360	22928
1	11747	1624	-280	15752
2	11747	-536	332	22844
1	11757	1680	-300	15688
2	11757	-520	280	23080
1	11767	1668	-240	15732
2	11767	-540	332	23000
1	11777	1624	-276	15712
2	11777	-500	388	22956
1	11787	1712	-260	15668
2	11787	-504	300	23048
1	11797	1632	-348	15708
2	11797	-420	324	22980
1	11807	1676	-248	15644
2	11807	-464	392	22944
1	11817	1584	-276	15612
2	11817	-520	336	23000
1	11827	1628	-284	15496
2	11827	-500	396	23116
1	11837	1692	-232	15668
2	11837	-464	332	23020
1	11847	1552	-296	15724
2	11847	-464	232	22976
1	11857	1648	-244	15788
2	11857	-508	268	22912
1	11867	1620	-208	15612
2	11867	-496	296	22912
1	11877	1740	-336	15780
2	11877	-556	292	22852
1	11887	1564	-232	15788
2	11887	-584	208	23028
1	11897	1572	-232	15632
2	11897	-484	268	23136
1	11907	1668	-228	15668
2	11907	-576	288	23016
1	11917	1600	-272	15696
2	11917	-520	284	22888
1	11927	1548	-232	15532
2	11927	-532	280	22992
1	11937	1640	-256	15856
2	11937	-576	300	22920
1	11947	1644	-284	15688
2	11947	-556	332	22896
1	11957	1676	-304	15708
2	11957	-472	276	22932
1	11967	1692	-228	15736
2	11967	-416	328	22952
1	11977	1688	-280	15764
2	11977	-500	352	22904
1	11987	1672	-244	15680
2	11987	-456	392	22852
1	11997	1576	-216	15816
2	11997	-500	404	23044
1	12007	1632	-264	15628
2	12007	-560	148	22964
1	12017	1660	-280	15564
2	12017	-440	344	23076
1	12027	1652	-244	15696
2	12027	-460	404	22948
1	12037	1620	-260	15572
2	12037	-512	372	22964
1	12047	1612	-196	15700
2	12047	-544	276	22912
1	12057	1632	-252	15740
2	12057	-472	204	22976
1	12067	1688	-304	15596
2	12067	-468	412	22960
1	12077	1592	-204	15660
2	12077	-508	284	22976
1	12087	1628	-160	15636
2	12087	-484	264	23040
1	12097	1552	-368	15788
2	12097	-484	324	22992
1	12107	1448	-264	15776
2	12107	-496	328	22936
1	12118	1624	-320	15624
2	12118	-504	340	22952
1	12127	1676	-280	15656
2	12127	-524	340	22988
1	12137	1592	-220	15700
2	12137	-416	332	22884
1	12147	1648	-308	15772
2	12147	-468	368	23000
1	12157	1664	-168	15556
2	12157	-456	296	22928
1	12167	1576	-296	15664
2	12167	-472	368	23084
1	12177	1580	-284	15760
2	12177	-476	284	23068
1	12187	1720	-300	15780
2	12187	-496	292	22904
1	12197	1632	-356	15796
2	12197	-420	280	22948
1	12207	1740	-204	15672
2	12207	-620	220	23060
1	12217	1588	-184	15768
2	12217	-536	252	22988
1	12227	1764	-312	15644
2	12227	-536	380	22984
1	12237	1628	-324	15728
2	12237	-524	320	23028
1	12247	1596	-284	15680
2	12247	-424	364	22912
1	12257	1596	-212	15848
2	12257	-512	352	22976
1	12267	1612	-264	15740
2	12267	-488	336	23000
1	12277	1620	-216	15848
2	12277	-632	324	22956
1	12288	1588	-156	15584
2	12288	-584	252	23032
1	12297	1760	-252	15744
2	12297	-396	296	22920
1	12307	1660	-260	15700
2	12307	-524	296	22936
1	12317	1584	-280	15752
2	12317	-464	376	22868
1	12327	1664	-284	15664
2	12327	-588	376	22908
1	12337	1644	-312	15608
2	12337	-464	340	22988
1	12347	1632	-276	15816
2	12347	-508	312	23128
1	12357	1732	-304	15660
2	12357	-572	300	22904
1	12367	1628	-224	15768
2	12367	-496	312	22996
1	12377	1476	-304	15628
2	12377	-544	196	23004
1	12387	1564	-304	15724
2	12387	-440	352	22916
1	12397	1720	-308	15720
2	12397	-532	372	23040
1	12407	1572	-284	15668
2	12407	-592	344	23004
1	12417	1612	-312	15712
2	12417	-464	292	22900
1	12427	1532	-276	15636
2	12427	-500	388	23052
1	12437	1596	-296	15788
2	12437	-480	280	23084
1	12447	1616	-228	15784
2	12447	-512	340	22948
1	12457	1572	-284	15632
2	12457	-540	264	23020
1	12467	1588	-228	15812
2	12467	-456	292	22936
1	12477	1628	-308	15664
2	12477	-536	272	22988
1	12487	1732	-280	15812
2	12487	-452	320	23064
1	12497	1652	-228	15716
2	12497	-440	256	23020
1	12507	1716	-340	15636
2	12507	-524	356	22948
1	12517	1612	-236	15744
2	12517	-556	348	22960
1	12527	1568	-324	15704
2	12527	-504	324	23028
1	12537	1624	-296	15728
2	12537	-416	284	22992
1	12547	1644	-232	15600
2	12547	-524	344	22892
1	12557	1592	-296	15736
2	12557	-516	368	23032
1	12567	1700	-324	15704
2	12567	-584	368	22824
1	12577	1656	-200	15612
2	12577	-504	176	23044
1	12587	1692	-184	15760
2	12587	-468	288	23012
1	12597	1576	-288	15736
2	12597	-420	180	22924
1	12607	1724	-248	15752
2	12607	-440	304	22900
1	12617	1604	-308	15784
2	12617	-456	212	23044
1	12627	1592	-244	15704
2	12627	-504	344	23036
1	12637	1644	-324	15748
2	12637	-492	176	22936
1	12647	1584	-220	15704
2	12647	-448	300	22832
1	12657	1592	-268	15768
2	12657	-544	280	22872
1	12667	1572	-332	15648
2	12667	-512	284	23068
1	12677	1644	-292	15752
2	12677	-540	340	22852
1	12687	1684	-324	15596
2	12687	-496	328	22960
1	12697	1524	-192	15688
2	12697	-512	480	23152
1	12707	1552	-280	15804
2	12707	-432	352	23100
1	12717	1704	-212	15612
2	12717	-480	404	22944
1	12727	1604	-172	15676
2	12727	-516	352	22928
1	12737	1596	-284	15720
2	12737	-472	380	22968
1	12747	1716	-196	15692
2	12747	-576	380	22992
1	12758	1612	-228	15836
2	12758	-412	296	23040
1	12767	1584	-392	15672
2	12767	-504	280	22880
1	12777	1668	-176	15664
2	12777	-464	304	22952
1	12787	1624	-204	15744
2	12787	-496	348	22972
1	12797	1580	-380	15696
2	12797	-456	368	23036
1	12807	1788	-320	15632
2	12807	-460	216	22796
1	12817	1668	-340	15712
2	12817	-540	312	23068
1	12827	1528	-240	15772
2	12827	-484	220	23004
1	12837	1696	-288	15688
2	12837	-516	272	23028
1	12847	1664	-212	15788
2	12847	-444	320	22888
1	12857	1692	-236	15776
2	12857	-412	340	23016
1	12867	1648	-200	15692
2	12867	-564	352	22968
1	12877	1620	-340	15692
2	12877	-444	292	22936
1	12887	1596	-240	15768
2	12887	-516	296	23008
1	12897	1640	-284	15604
2	12897	-532	420	22980
1	12907	1704	-304	15704
2	12907	-568	340	22888
1	12917	1596	-164	15704
2	12917	-452	356	22940
1	12928	1592	-292	15620
2	12928	-440	376	23068
1	12937	1532	-312	15748
2	12937	-484	232	22976
1	12947	1536	-192	15816
2	12947	-488	368	23056
1	12957	1708	-228	15680
2	12957	-448	320	22972
1	12967	1660	-284	15588
2	12967	-492	328	23064
1	12977	1540	-248	15584
2	12977	-452	272	22960
1	12987	1560	-232	15740
2	12987	-508	376	23032
1	12997	1600	-240	15848
2	12997	-476	272	23040
1	13007	1580	-312	15752
2	13007	-536	284	22864
1	13017	1740	-216	15528
2	13017	-564	428	23072
1	13027	1668	-288	15680
2	13027	-512	368	22864
1	13037	1584	-268	15680
2	13037	-536	340	22988
1	13047	1668	-284	15708
2	13047	-508	240	23048
1	13057	1608	-268	15720
2	13057	-508	316	22964
1	13067	1752	-200	15668
2	13067	-496	368	22896
1	13077	1620	-240	15672
2	13077	-544	324	22964
1	13087	1624	-276	15636
2	13087	-480	180	22916
1	13097	1668	-148	15728
2	13097	-484	340	23044
1	13107	1616	-264	15652
2	13107	-512	384	23032
1	13117	1656	-380	15724
2	13117	-524	236	23008
1	13127	1604	-252	15680
2	13127	-456	284	23056
1	13137	1692	-236	15756
2	13137	-468	308	22980
1	13147	1680	-300	15780
2	13147	-504	364	23008
1	13157	1524	-244	15792
2	13157	-432	340	23036
1	13167	1712	-308	15860
2	13167	-536	324	22948
1	13177	1664	-208	15616
2	13177	-508	384	22984
1	13187	1572	-212	15728
2	13187	-516	292	22960
1	13197	1676	-268	15784
2	13197	-496	240	22940
1	13207	1672	-236	15752
2	13207	-660	344	22952
1	13217	1592	-268	15640
2	13217	-492	336	22944
1	13227	1612	-352	15740
2	13227	-436	296	22972
1	13237	1584	-284	15668
2	13237	-500	296	22816
1	13247	1540	-300	15656
2	13247	-532	332	22968
1	13257	1648	-208	15800
2	13257	-508	328	23008
1	13267	1660	-224	15712
2	13267	-472	352	23104
1	13277	1596	-208	15684
2	13277	-520	344	22832
1	13287	1644	-292	15664
2	13287	-604	256	23040
1	13297	1508	-400	15608
2	13297	-444	296	22996
1	13307	1660	-268	15708
2	13307	-480	324	22924
1	13317	1600	-264	15612
2	13317	-456	352	22776
1	13327	1724	-344	15692
2	13327	-452	316	23084
1	13337	1584	-268	15716
2	13337	-416	304	22956
1	13347	1688	-292	15648
2	13347	-608	296	23020
1	13357	1556	-216	15652
2	13357	-516	356	22916
1	13367	1588	-224	15800
2	13367	-544	336	23000
1	13377	1616	-324	15844
2	13377	-452	244	23040
1	13387	1608	-172	15688
2	13387	-500	276	22844
1	13398	1608	-304	15708
2	13398	-500	384	22896
1	13407	1528	-268	15660
2	13407	-528	372	23048
1	13417	1664	-300	15812
2	13417	-452	380	22920
1	13427	1596	-324	15704
2	13427	-456	352	23112
1	13437	1564	-164	15564
2	13437	-452	340	23056
1	13447	1636	-308	15608
2	13447	-428	300	22844
1	13457	1660	-332	15768
2	13457	-436	280	23124
1	13467	1668	-312	15732
2	13467	-408	312	22864
1	13477	1528	-292	15568
2	13477	-484	316	22988
1	13487	1628	-200	15660
2	13487	-488	280	22988
1	13497	1676	-264	15748
2	13497	-488	260	22940
1	13507	1628	-240	15640
2	13507	-452	292	23012
1	13517	1708	-280	15728
2	13517	-572	276	23104
1	13527	1588	-252	15704
2	13527	-492	280	23084
1	13537	1580	-288	15592
2	13537	-504	284	22960
1	13547	1708	-204	15700
2	13547	-508	264	22880
1	13557	1660	-252	15736
2	13557	-480	384	22968
1	13568	1624	-260	15676
2	13568	-512	276	22992
1	13577	1652	-384	15552
2	13577	-568	356	22968
1	13587	1648	-244	15668
2	13587	-476	272	22996
1	13597	1712	-200	15752
2	13597	-464	448	22932
1	13607	1660	-348	15764
2	13607	-560	364	22872
1	13617	1568	-220	15724
2	13617	-484	224	22932
1	13627	1712	-296	15644
2	13627	-476	260	23064
1	13637	1680	-244	15656
2	13637	-452	352	22968
1	13647	1696	-320	15708
2	13647	-564	352	22940
1	13657	1584	-288	15724
2	13657	-500	332	23052
1	13667	1640	-268	15660
2	13667	-500	264	23004
1	13677	1592	-276	15656
2	13677	-504	332	23036
1	13687	1552	-308	15700
2	13687	-560	232	22944
1	13697	1720	-180	15724
2	13697	-552	376	23056
1	13707	1608	-256	15620
2	13707	-464	288	22852
1	13717	1636	-236	15732
2	13717	-492	296	22876
1	13727	1656	-328	15700
2	13727	-516	308	22880
1	13737	1628	-164	15856
2	13737	-388	348	22864
1	13747	1620	-228	15632
2	13747	-320	408	23036
1	13757	1688	-264	15768
2	13757	-464	320	22868
1	13767	1648	-276	15788
2	13767	-460	280	23036
1	13777	1564	-188	15744
2	13777	-536	244	22988
1	13787	1632	-260	15684
2	13787	-448	460	22972
1	13797	1572	-288	15732
2	13797	-428	292	23104
1	13807	1680	-332	15648
2	13807	-480	312	23040
1	13817	1684	-248	15496
2	13817	-536	392	23076
1	13827	1592	-308	15688
2	13827	-464	292	22868
1	13837	1712	-240	15660
2	13837	-516	376	23000
1	13847	1656	-332	15760
2	13847	-504	392	22992
1	13857	1604	-216	15612
2	13857	-600	380	22916
1	13867	1564	-300	15696
2	13867	-556	312	23008
1	13877	1600	-276	15816
2	13877	-464	292	23036
1	13887	1600	-192	15696
2	13887	-512	332	22936
1	13897	1588	-264	15712
2	13897	-472	292	22904
1	13907	1580	-288	15828
2	13907	-412	328	22884
1	13917	1648	-332	15852
2	13917	-432	336	22952
1	13927	1668	-308	15760
2	13927	-468	348	23056
1	13937	1504	-176	15716
2	13937	-508	292	22932
1	13947	1572	-336	15572
2	13947	-508	248	23024
1	13957	1704	-292	15524
2	13957	-536	276	22824
1	13967	1728	-288	15888
2	13967	-460	300	23052
1	13977	1648	-296	15556
2	13977	-592	400	22884
1	13987	1628	-196	15820
2	13987	-540	324	23044
1	13997	1732	-188	15676
2	13997	-472	300	22936
1	14007	1636	-280	15688
2	14007	-460	312	22952
1	14017	1696	-256	15636
2	14017	-556	364	23120
1	14027	1652	-264	15644
2	14027	-496	324	23004
1	14038	1668	-236	15672
2	14038	-508	300	22972
1	14047	1680	-240	15656
2	14047	-564	300	22988
1	14057	1604	-188	15772
2	14057	-488	304	22812
1	14067	1628	-276	15652
2	14067	-516	284	23100
1	14077	1624	-276	15668
2	14077	-492	276	23036
1	14087	1652	-184	15724
2	14087	-580	460	23012
1	14097	1628	-228	15796
2	14097	-408	232	22836
1	14107	1720	-352	15648
2	14107	-368	252	23172
1	14117	1632	-260	15784
2	14117	-516	396	23152
1	14127	1580	-276	15664
2	14127	-516	272	22984
1	14137	1632	-208	15684
2	14137	-484	288	22768
1	14147	1600	-176	15800
2	14147	-476	240	22904
1	14157	1640	-248	15828
2	14157	-556	284	23036
1	14167	1556	-240	15620
2	14167	-496	316	22880
1	14177	1660	-312	15680
2	14177	-500	228	22852
1	14187	1732	-264	15664
2	14187	-600	276	23016
1	14197	1588	-204	15784
2	14197	-492	280	22988
1	14208	1616	-264	15652
2	14208	-508	300	22968
1	14217	1692	-216	15788
2	14217	-580	368	22888
1	14227	1772	-292	15816
2	14227	-528	252	22968
1	14237	1608	-312	15752
2	14237	-488	344	22836
1	14247	1508	-304	15688
2	14247	-600	296	22920
1	14257	1636	-308	15764
2	14257	-456	436	22984
1	14267	1636	-220	15648
2	14267	-436	336	22912
1	14277	1652	-240	15728
2	14277	-608	276	22912
1	14287	1556	-280	15564
2	14287	-464	336	22928
1	14297	1556	-260	15728
2	14297	-424	284	22792
1	14307	1652	-212	15824
2	14307	-476	272	22972
1	14317	1620	-320	15728
2	14317	-488	352	23004
1	14327	1572	-212	15692
2	14327	-492	236	23032
1	14337	1532	-232	15704
2	14337	-384	388	22984
1	14347	1664	-312	15660
2	14347	-460	364	23052
1	14357	1512	-312	15732
2	14357	-504	228	22956
1	14367	1620	-232	15796
2	14367	-464	280	23032
1	14377	1624	-252	15628
2	14377	-416	368	23036
1	14387	1568	-268	15696
2	14387	-516	304	22928
1	14397	1644	-228	15728
2	14397	-448	296	22980
1	14407	1624	-144	15748
2	14407	-452	356	23000
1	14417	1640	-124	15772
2	14417	-472	252	22960
1	14427	1584	-224	15820
2	14427	-560	332	22936
1	14437	1696	-184	15648
2	14437	-460	240	23124
1	14447	1600	-304	15616
2	14447	-420	304	22996
1	14457	1632	-332	15660
2	14457	-512	224	23044
1	14467	1724	-108	15596
2	14467	-544	308	23044
1	14477	1604	-208	15784
2	14477	-512	412	23096
1	14487	1572	-204	15672
2	14487	-364	408	22988
1	14497	1576	-200	15784
2	14497	-476	212	23064
1	14507	1652	-256	15624
2	14507	-564	324	23076
1	14517	1692	-288	15688
2	14517	-412	264	23024
1	14527	1604	-264	15552
2	14527	-492	296	23028
1	14537	1592	-212	15668
2	14537	-476	456	22920
1	14547	1596	-248	15636
2	14547	-440	380	22988
1	14557	1552	-284	15596
2	14557	-436	388	23040
1	14567	1584	-256	15716
2	14567	-564	252	23012
1	14577	1684	-368	15920
2	14577	-556	360	23004
1	14587	1660	-260	15588
2	14587	-496	260	22944
1	14597	1604	-216	15672
2	14597	-540	336	22992
1	14607	1636	-268	15812
2	14607	-436	340	23040
1	14617	1592	-232	15680
2	14617	-456	264	22904
1	14627	1664	-184	15724
2	14627	-508	292	23052
1	14637	1576	-244	15648
2	14637	-548	344	23016
1	14647	1628	-308	15752
2	14647	-484	448	22960
1	14657	1600	-356	15684
2	14657	-504	236	22984
1	14667	1644	-264	15648
2	14667	-500	320	23080
1	14678	1720	-276	15764
2	14678	-492	356	22936
1	14687	1652	-264	15800
2	14687	-484	292	23104
1	14697	1636	-212	15616
2	14697	-484	296	22932
1	14707	1708	-200	15660
2	14707	-512	384	22924
1	14717	1660	-324	15808
2	14717	-504	276	22916
1	14727	1644	-272	15712
2	14727	-480	292	23068
1	14737	1644	-272	15776
2	14737	-572	260	22968
1	14747	1664	-308	15708
2	14747	-456	332	22888
1	14757	1616	-232	15756
2	14757	-544	188	23048
1	14767	1620	-356	15892
2	14767	-492	292	22992
1	14777	1620	-232	15680
2	14777	-520	340	22892
1	14787	1604	-220	15736
2	14787	-516	396	22932
1	14797	1688	-348	15724
2	14797	-504	368	23040
1	14807	1628	-344	15664
2	14807	-428	332	22896
1	14817	1600	-252	15644
2	14817	-568	316	23048
1	14827	1664	-304	15736
2	14827	-544	320	23016
1	14837	1616	-200	15680
2	14837	-376	304	22944
1	14848	1552	-332	15696
2	14848	-512	352	23120
1	14857	1708	-320	15656
2	14857	-508	380	22800
1	14867	1680	-276	15732
2	14867	-540	312	23112
1	14877	1652	-340	15836
2	14877	-484	368	22900
1	14887	1612	-184	15696
2	14887	-456	280	23068
1	14897	1588	-284	15672
2	14897	-476	260	23004
1	14907	1644	-288	15732
2	14907	-440	348	22912
1	14917	1592	-216	15712
2	14917	-476	396	22992
1	14927	1608	-216	15724
2	14927	-536	340	22932
1	14937	1512	-268	15700
2	14937	-408	220	22908
1	14947	1688	-252	15764
2	14947	-492	412	22892
1	14957	1544	-404	15752
2	14957	-416	200	23180
1	14967	1620	-228	15800
2	14967	-548	380	22864
1	14977	1684	-192	15704
2	14977	-468	256	23036
1	14987	1660	-304	15700
2	14987	-504	336	23140
1	14997	1548	-388	15720
2	14997	-540	292	23072
1	15007	1592	-320	15576
2	15007	-500	352	22908
1	15017	1552	-196	15704
2	15017	-544	316	23004
1	15027	1612	-260	15656
2	15027	-484	456	22984
1	15037	1648	-248	15704
2	15037	-532	328	23040
1	15047	1644	-280	15608
2	15047	-512	164	23004
1	15057	1604	-264	15516
2	15057	-424	248	22864
1	15067	1684	-272	15620
2	15067	-492	404	23060
1	15077	1688	-252	15656
2	15077	-440	312	22916
1	15087	1508	-244	15696
2	15087	-552	280	22964
1	15097	1652	-216	15680
2	15097	-516	248	23004
1	15107	1648	-340	15580
2	15107	-480	272	23080
1	15117	1660	-176	15720
2	15117	-500	312	23132
1	15127	1652	-320	15720
2	15127	-484	272	23004
1	15137	1660	-260	15628
2	15137	-504	260	22948
1	15147	1628	-292	15656
2	15147	-468	340	22976
1	15157	1596	-216	15616
2	15157	-488	376	22912
1	15167	1508	-160	15616
2	15167	-588	340	23052
1	15177	1652	-256	15812
2	15177	-532	312	22964
1	15187	1596	-348	15796
2	15187	-512	376	23172
1	15197	1620	-232	15716
2	15197	-536	336	22896
1	15207	1604	-288	15504
2	15207	-568	336	22948
1	15217	1644	-224	15740
2	15217	-524	288	22968
1	15227	1632	-304	15648
2	15227	-560	280	22832
1	15237	1656	-228	15728
2	15237	-496	328	23020
1	15247	1688	-276	15832
2	15247	-492	316	22948
1	15257	1596	-304	15756
2	15257	-412	388	23072
1	15267	1600	-248	15656
2	15267	-460	248	22964
1	15277	1672	-312	15692
2	15277	-508	364	22908
1	15287	1564	-264	15696
2	15287	-420	268	22876
1	15297	1628	-304	15704
2	15297	-500	304	23020
1	15307	1636	-324	15644
2	15307	-472	240	23068
1	15318	1628	-248	15688
2	15318	-468	312	22984
1	15327	1660	-280	15672
2	15327	-412	268	23016
1	15337	1588	-228	15776
2	15337	-424	224	22940
1	15347	1492	-196	15772
2	15347	-524	352	22976
1	15357	1592	-212	15680
2	15357	-488	468	22932
1	15367	1624	-288	15668
2	15367	-508	352	22820
1	15377	1576	-248	15824
2	15377	-584	252	22916
1	15387	1644	-308	15768
2	15387	-540	332	23048
1	15397	1688	-280	15708
2	15397	-416	412	23004
1	15407	1656	-288	15660
2	15407	-552	416	22900
1	15417	1612	-264	15736
2	15417	-552	284	22900
1	15427	1660	-312	15780
2	15427	-472	424	23072
1	15437	1612	-164	15872
2	15437	-528	268	22948
1	15447	1652	-268	15696
2	15447	-452	316	22808
1	15457	1656	-296	15776
2	15457	-468	416	22940
1	15467	1656	-384	15720
2	15467	-364	240	22852
1	15477	1636	-264	15688
2	15477	-476	372	22880
1	15488	1640	-288	15760
2	15488	-412	328	22884
1	15497	1632	-248	15652
2	15497	-528	372	22976
1	15507	1632	-244	15816
2	15507	-420	320	22912
1	15517	1708	-356	15608
2	15517	-592	244	22944
1	15527	1592	-300	15648
2	15527	-396	340	22996
1	15537	1608	-292	15680
2	15537	-516	240	22980
1	15547	1660	-276	15600
2	15547	-476	252	22932
1	15557	1696	-272	15708
2	15557	-360	304	22880
1	15567	1784	-364	15640
2	15567	-600	352	22960
1	15577	1628	-236	15808
2	15577	-428	316	22932
1	15587	1624	-228	15736
2	15587	-524	348	22996
1	15597	1580	-312	15780
2	15597	-428	312	23040
1	15607	1668	-272	15736
2	15607	-556	264	22980
1	15617	1680	-352	15668
2	15617	-512	312	22908
1	15627	1620	-148	15744
2	15627	-444	396	22912
1	15637	1652	-160	15644
2	15637	-500	332	22816
1	15647	1660	-324	15600
2	15647	-520	344	23080
1	15657	1720	-188	15620
2	15657	-480	224	23016
1	15667	1612	-276	15664
2	15667	-536	260	22948
1	15677	1604	-232	15660
2	15677	-476	308	22996
1	15687	1608	-248	15760
2	15687	-528	356	22944
1	15697	1616	-216	15756
2	15697	-468	292	23028
1	15707	1592	-288	15608
2	15707	-608	300	22936
1	15717	1520	-248	15664
2	15717	-464	336	22924
1	15727	1584	-276	15680
2	15727	-464	292	23008
1	15737	1576	-216	15780
2	15737	-572	244	22956
1	15747	1548	-344	15696
2	15747	-492	296	22992
1	15757	1656	-312	15620
2	15757	-448	372	22964
1	15767	1696	-292	15720
2	15767	-468	304	22920
1	15777	1664	-316	15636
2	15777	-516	324	22824
1	15787	1596	-328	15680
2	15787	-512	232	22948
1	15797	1620	-276	15772
2	15797	-496	356	23128
1	15807	1600	-368	15616
2	15807	-484	336	22928
1	15817	1636	-156	15700
2	15817	-560	292	22880
1	15827	1668	-240	15752
2	15827	-464	324	22924
1	15837	1656	-252	15688
2	15837	-528	320	22916
1	15847	1660	-256	15696
2	15847	-524	372	22948
1	15857	1644	-348	15688
2	15857	-556	496	22984
1	15867	1712	-284	15676
2	15867	-496	296	22964
1	15877	1592	-312	15760
2	15877	-452	372	22868
1	15887	1652	-236	15664
2	15887	-508	340	22968
1	15897	1720	-124	15596
2	15897	-472	324	23020
1	15907	1772	-228	15772
2	15907	-512	312	22884
1	15917	1700	-228	15704
2	15917	-416	268	22936
1	15927	1660	-284	15808
2	15927	-564	364	22776
1	15937	1664	-320	15624
2	15937	-500	356	22864
1	15947	1540	-208	15564
2	15947	-468	328	22964
1	15958	1704	-324	15772
2	15958	-568	280	23060
1	15967	1576	-360	15560
2	15967	-500	404	22836
1	15977	1564	-208	15804
2	15977	-460	324	23036
1	15987	1528	-280	15744
2	15987	-500	328	22944
1	15997	1624	-280	15780
2	15997	-528	376	23040
1	16007	1700	-364	15720
2	16007	-604	336	23008
1	16017	1732	-256	15516
2	16017	-600	284	22928
1	16027	1624	-324	15772
2	16027	-396	324	23100
1	16037	1640	-320	15644
2	16037	-448	372	22840
1	16047	1572	-280	15800
2	16047	-512	360	23000
1	16057	1648	-280	15820
2	16057	-360	284	23164
1	16067	1624	-280	15656
2	16067	-464	292	23104
1	16077	1592	-232	15636
2	16077	-416	332	22948
1	16087	1572	-208	15700
2	16087	-504	296	23036
1	16097	1600	-260	15796
2	16097	-432	324	22916
1	16107	1600	-332	15644
2	16107	-472	252	22976
1	16117	1692	-232	15628
2	16117	-528	252	22948
1	16128	1612	-228	15548
2	16128	-516	264	22948
1	16137	1508	-280	15780
2	16137	-480	312	23036
1	16147	1560	-268	15892
2	16147	-432	264	22864
1	16157	1628	-180	15688
2	16157	-452	320	23132
1	16167	1688	-372	15748
2	16167	-564	344	22872
1	16177	1624	-192	15644
2	16177	-552	268	23036
1	16187	1632	-196	15616
2	16187	-440	256	23072
1	16197	1584	-332	15820
2	16197	-532	408	22908
1	16207	1628	-308	15700
2	16207	-536	296	23004
1	16217	1696	-228	15472
2	16217	-596	360	22960
1	16227	1672	-196	15672
2	16227	-472	204	23104
1	16237	1612	-220	15704
2	16237	-468	352	22956
1	16247	1700	-304	15816
2	16247	-552	320	22968
1	16257	1596	-264	15604
2	16257	-532	324	22936
1	16267	1616	-276	15636
2	16267	-444	368	23036
1	16277	1700	-276	15660
2	16277	-484	336	23068
1	16287	1628	-268	15700
2	16287	-440	348	23044
1	16297	1652	-224	15744
2	16297	-468	320	22936
1	16307	1600	-292	15664
2	16307	-604	272	23000
1	16317	1612	-276	15704
2	16317	-500	324	23160
1	16327	1580	-152	15876
2	16327	-480	368	22928
1	16337	1584	-236	15736
2	16337	-512	368	22996
1	16347	1700	-228	15712
2	16347	-500	288	23008
1	16357	1672	-248	15588
2	16357	-536	296	23132
1	16367	1704	-224	15740
2	16367	-468	244	22924
1	16377	1636	-232	15492
2	16377	-432	444	22996
1	16387	1592	-172	15780
2	16387	-484	240	23024
1	16397	1628	-308	15612
2	16397	-492	332	22972
1	16407	1628	-264	15612
2	16407	-508	244	22948
1	16417	1572	-260	15684
2	16417	-620	336	22916
1	16427	1612	-268	15732
2	16427	-476	272	22888
1	16437	1540	-144	15712
2	16437	-484	340	22936
1	16447	1608	-248	15736
2	16447	-516	300	22868
1	16457	1752	-308	15672
2	16457	-380	300	22840
1	16467	1684	-280	15608
2	16467	-500	264	22876
1	16477	1564	-252	15712
2	16477	-552	292	22896
1	16487	1608	-308	15880
2	16487	-540	228	22812
1	16497	1588	-272	15696
2	16497	-476	280	23048
1	16507	1572	-232	15664
2	16507	-536	316	22880
1	16517	1684	-280	15732
2	16517	-528	388	22964
1	16527	1608	-172	15600
2	16527	-476	428	22928
1	16537	1712	-248	15652
2	16537	-604	340	22916
1	16547	1608	-188	15732
2	16547	-568	324	23040
1	16557	1632	-232	15648
2	16557	-540	400	23052
1	16567	1584	-240	15628
2	16567	-508	340	22980
1	16577	1684	-332	15688
2	16577	-452	224	23148
1	16587	1580	-280	15740
2	16587	-464	228	23020
1	16598	1604	-188	15632
2	16598	-492	340	22884
1	16607	1652	-260	15684
2	16607	-508	308	22944
1	16617	1600	-244	15780
2	16617	-396	420	22924
1	16627	1568	-284	15704
2	16627	-436	372	23036
1	16637	1592	-256	15772
2	16637	-496	316	22952
1	16647	1568	-300	15724
2	16647	-524	316	22908
1	16657	1620	-380	15672
2	16657	-508	332	22896
1	16667	1696	-308	15768
2	16667	-468	352	22932
1	16677	1636	-212	15724
2	16677	-512	376	22908
1	16687	1576	-252	15684
2	16687	-512	260	22968
1	16697	1644	-200	15596
2	16697	-440	372	22964
1	16707	1632	-308	15616
2	16707	-540	276	22964
1	16717	1684	-192	15680
2	16717	-500	320	23076
1	16727	1696	-240	15640
2	16727	-524	348	22908
1	16737	1580	-288	15676
2	16737	-584	236	22912
1	16747	1584	-280	15736
2	16747	-604	344	22892
1	16757	1580	-204	15592
2	16757	-456	248	22984
1	16768	1612	-328	15784
2	16768	-544	228	22912
1	16777	1696	-260	15664
2	16777	-536	208	23048
1	16787	1712	-364	15636
2	16787	-380	316	22948
1	16797	1668	-256	15756
2	16797	-500	272	22880
1	16807	1704	-244	15612
2	16807	-588	268	23072
1	16817	1620	-180	15832
2	16817	-568	232	23104
1	16827	1640	-208	15552
2	16827	-548	360	22976
1	16837	1668	-256	15832
2	16837	-536	360	22868
1	16847	1560	-352	15628
2	16847	-544	376	22992
1	16857	1672	-340	15824
2	16857	-500	324	22976
1	16867	1704	-192	15704
2	16867	-364	308	22836
1	16877	1660	-212	15716
2	16877	-476	224	23072
1	16887	1616	-296	15820
2	16887	-516	384	23016
1	16897	1552	-272	15608
2	16897	-444	212	22984
1	16907	1564	-188	15672
2	16907	-488	368	22892
1	16917	1676	-272	15636
2	16917	-508	316	22892
1	16927	1680	-148	15656
2	16927	-452	236	23012
1	16937	1596	-164	15584
2	16937	-456	304	22932
1	16947	1740	-308	15680
2	16947	-440	280	22976
1	16957	1628	-236	15628
2	16957	-472	384	22976
1	16967	1652	-324	15604
2	16967	-632	272	22920
1	16977	1588	-240	15760
2	16977	-452	352	23052
1	16987	1504	-244	15592
2	16987	-436	256	22952
1	16997	1624	-300	15712
2	16997	-472	380	22964
1	17007	1688	-216	15552
2	17007	-456	364	22988
1	17017	1708	-304	15788
2	17017	-504	228	22988
1	17027	1612	-316	15752
2	17027	-472	336	23088
1	17037	1628	-292	15728
2	17037	-456	460	23068
1	17047	1576	-320	15704
2	17047	-436	324	22964
1	17057	1628	-280	15720
2	17057	-524	196	23040
1	17067	1616	-328	15696
2	17067	-600	316	23084
1	17077	1656	-240	15684
2	17077	-500	252	23048
1	17087	1600	-248	15592
2	17087	-544	348	22968
1	17097	1572	-364	15848
2	17097	-564	296	22872
1	17107	1652	-232	15768
2	17107	-448	236	23076
1	17117	1664	-276	15756
2	17117	-440	308	23024
1	17127	1608	-344	15688
2	17127	-500	256	22956
1	17137	1660	-316	15752
2	17137	-452	348	23040
1	17147	1564	-248	15676
2	17147	-556	260	22908
1	17157	1728	-300	15764
2	17157	-488	212	23008
1	17167	1568	-320	15588
2	17167	-488	220	22880
1	17177	1600	-284	15780
2	17177	-492	280	22880
1	17187	1692	-292	15836
2	17187	-576	344	22892
1	17197	1668	-276	15620
2	17197	-440	324	23000
1	17207	1688	-328	15620
2	17207	-552	368	22980
1	17217	1544	-348	15704
2	17217	-384	324	23168
1	17227	1596	-328	15700
2	17227	-488	268	23024
1	17238	1564	-228	15752
2	17238	-556	360	22892
1	17247	1708	-328	15668
2	17247	-464	260	22848
1	17257	1600	-316	15772
2	17257	-472	288	22948
1	17267	1628	-280	15664
2	17267	-400	284	22884
1	17277	1604	-260	15640
2	17277	-468	272	22860
1	17287	1620	-304	15668
2	17287	-568	408	22968
1	17297	1664	-248	15696
2	17297	-504	252	23096
1	17307	1780	-276	15708
2	17307	-516	380	22988
1	17317	1712	-276	15792
2	17317	-580	308	22792
1	17327	1620	-268	15796
2	17327	-480	268	23092
1	17337	1612	-220	15600
2	17337	-584	336	22980
1	17347	1688	-268	15704
2	17347	-540	264	23016
1	17357	1660	-244	15804
2	17357	-484	332	22884
1	17367	1608	-236	15708
2	17367	-516	316	22948
1	17377	1572	-264	15796
2	17377	-400	228	22936
1	17387	1696	-304	15668
2	17387	-496	396	22968
1	17397	1704	-300	15836
2	17397	-496	388	22888
1	17408	1632	-284	15776
2	17408	-436	328	22996
1	17417	1632	-168	15848
2	17417	-528	248	23020
1	17427	1560	-324	15752
2	17427	-612	304	23008
1	17437	1576	-252	15632
2	17437	-416	324	23032
1	17447	1696	-212	15648
2	17447	-476	268	23048
1	17457	1664	-224	15712
2	17457	-496	344	22916
1	17467	1620	-304	15640
2	17467	-416	236	23036
1	17477	1656	-220	15644
2	17477	-472	372	23020
1	17487	1608	-224	15744
2	17487	-572	344	22912
1	17497	1608	-260	15568
2	17497	-480	324	22976
1	17507	1652	-176	15664
2	17507	-524	284	22936
1	17517	1708	-244	15716
2	17517	-600	304	23056
1	17527	1664	-288	15636
2	17527	-456	356	22996
1	17537	1556	-300	15752
2	17537	-428	360	23008
1	17547	1628	-152	15588
2	17547	-544	304	22992
1	17557	1604	-296	15796
2	17557	-540	348	23024
1	17567	1604	-284	15764
2	17567	-476	368	22824
1	17577	1656	-284	15764
2	17577	-540	268	23124
1	17587	1560	-236	15636
2	17587	-552	268	23056
1	17597	1616	-144	15628
2	17597	-496	296	22796
1	17607	1608	-264	15768
2	17607	-508	272	22960
1	17617	1652	-264	15728
2	17617	-500	380	22956
1	17627	1624	-280	15668
2	17627	-564	320	23056
1	17637	1652	-396	15836
2	17637	-432	304	22996
1	17647	1620	-320	15612
2	17647	-424	284	22948
1	17657	1608	-260	15628
2	17657	-452	236	23068
1	17667	1572	-332	15516
2	17667	-412	312	23244
1	17677	1572	-256	15772
2	17677	-512	324	23044
1	17687	1664	-300	15728
2	17687	-484	288	22932
1	17697	1572	-288	15640
2	17697	-464	352	22920
1	17707	1620	-284	15696
2	17707	-508	336	22948
1	17717	1548	-300	15780
2	17717	-524	332	22884
1	17727	1616	-368	15552
2	17727	-544	320	22880
1	17737	1576	-232	15576
2	17737	-436	184	23048
1	17747	1636	-312	15684
2	17747	-532	340	22976
1	17757	1572	-160	15796
2	17757	-540	340	23056
1	17767	1644	-392	15732
2	17767	-448	224	22948
1	17777	1572	-296	15752
2	17777	-512	320	22844
1	17787	1608	-216	15704
2	17787	-536	248	23028
1	17797	1580	-208	15644
2	17797	-488	272	23056
1	17807	1724	-320	15768
2	17807	-464	288	22984
1	17817	1664	-272	15652
2	17817	-468	260	22852
1	17827	1544	-240	15748
2	17827	-568	328	22936
1	17837	1504	-288	15700
2	17837	-456	228	22904
1	17847	1744	-268	15484
2	17847	-540	340	22792
1	17857	1608	-216	15856
2	17857	-436	316	23040
1	17867	1576	-308	15676
2	17867	-512	272	22964
1	17878	1576	-316	15700
2	17878	-532	252	22984
1	17887	1612	-300	15744
2	17887	-456	308	23020
1	17897	1632	-240	15688
2	17897	-456	416	22968
1	17907	1572	-256	15704
2	17907	-404	336	23076
1	17917	1564	-192	15596
2	17917	-476	252	22896
1	17927	1624	-256	15736
2	17927	-408	368	23036
1	17937	1596	-260	15628
2	17937	-468	340	23044
1	17947	1604	-344	15828
2	17947	-552	240	22968
1	17957	1768	-356	15728
2	17957	-524	252	23028
1	17967	1652	-272	15696
2	17967	-492	412	22980
1	17977	1628	-312	15744
2	17977	-608	288	22880
1	17987	1688	-276	15680
2	17987	-580	340	23036
1	17997	1620	-328	15736
2	17997	-592	316	22956
1	18007	1696	-196	15672
2	18007	-412	308	22980
1	18017	1648	-348	15664
2	18017	-472	280	22928
1	18027	1652	-300	15604
2	18027	-424	248	22912
1	18037	1604	-200	15560
2	18037	-560	264	23128
1	18048	1640	-320	15688
2	18048	-516	272	22940
1	18057	1648	-280	15704
2	18057	-468	304	22996
1	18067	1628	-244	15820
2	18067	-448	312	22920
1	18077	1540	-288	15624
2	18077	-520	300	22852
1	18087	1600	-252	15628
2	18087	-564	344	22996
1	18097	1592	-280	15568
2	18097	-496	368	23040
1	18107	1584	-264	15776
2	18107	-520	408	23068
1	18117	1652	-288	15664
2	18117	-500	344	23064
1	18127	1660	-228	15720
2	18127	-508	364	23008
1	18137	1648	-380	15768
2	18137	-540	344	22984
1	18147	1700	-236	15664
2	18147	-624	304	22908
1	18157	1580	-184	15616
2	18157	-536	264	22968
1	18167	1588	-380	15712
2	18167	-516	356	23100
1	18177	1688	-272	15600
2	18177	-524	256	23020
1	18187	1508	-236	15724
2	18187	-564	452	22952
1	18197	1660	-228	15696
2	18197	-544	344	22948
1	18207	1580	-292	15748
2	18207	-448	304	22916
1	18217	1624	-344	15688
2	18217	-528	260	22956
1	18227	1612	-216	15624
2	18227	-480	364	22872
1	18237	1668	-276	15660
2	18237	-516	368	22968
1	18247	1568	-300	15608
2	18247	-536	408	23048
1	18257	1736	-264	15728
2	18257	-536	296	22964
1	18267	1712	-276	15684
2	18267	-400	316	22996
1	18277	1668	-252	15624
2	18277	-468	364	23016
1	18287	1740	-284	15840
2	18287	-452	368	23008
1	18297	1716	-256	15716
2	18297	-404	268	22940
1	18307	1688	-284	15592
2	18307	-484	304	22936
1	18317	1616	-264	15652
2	18317	-532	288	22952
1	18327	1556	-240	15708
2	18327	-504	380	22992
1	18337	1528	-296	15688
2	18337	-524	280	22820
1	18347	1584	-256	15752
2	18347	-424	272	22808
1	18357	1668	-236	15628
2	18357	-520	468	22884
1	18367	1616	-260	15724
2	18367	-548	280	22932
1	18377	1756	-172	15760
2	18377	-488	292	22888
1	18387	1572	-184	15676
2	18387	-496	328	22864
1	18397	1612	-216	15736
2	18397	-576	276	22976
1	18407	1556	-296	15584
2	18407	-400	304	22860
1	18417	1564	-200	15764
2	18417	-588	300	22904
1	18427	1608	-252	15836
2	18427	-448	280	23020
1	18437	1488	-300	15720
2	18437	-556	324	22856
1	18447	1688	-292	15608
2	18447	-428	260	22888
1	18457	1604	-300	15708
2	18457	-540	308	22932
1	18467	1724	-220	15628
2	18467	-484	276	23040
1	18477	1668	-184	15748
2	18477	-508	324	23016
1	18487	1636	-300	15672
2	18487	-488	244	22876
1	18497	1720	-264	15656
2	18497	-532	316	22872
1	18507	1680	-288	15808
2	18507	-496	364	23072
1	18518	1544	-240	15636
2	18518	-492	312	23108
1	18527	1548	-224	15616
2	18527	-456	364	22932
1	18537	1744	-200	15688
2	18537	-544	356	23048
1	18547	1608	-212	15848
2	18547	-484	268	22860
1	18557	1740	-312	15696
2	18557	-540	356	22996
1	18567	1656	-312	15604
2	18567	-476	288	22844
1	18577	1548	-312	15616
2	18577	-524	344	22896
1	18587	1796	-296	15548
2	18587	-464	104	22980
1	18597	1700	-252	15676
2	18597	-568	392	23016
1	18607	1480	-268	15576
2	18607	-472	308	22964
1	18617	1584	-212	15680
2	18617	-532	368	23016
1	18627	1636	-208	15732
2	18627	-556	292	22996
1	18637	1644	-304	15604
2	18637	-468	292	23128
1	18647	1660	-304	15752
2	18647	-464	276	22896
1	18657	1616	-332	15744
2	18657	-576	408	23016
1	18667	1596	-272	15608
2	18667	-512	268	22852
1	18677	1588	-296	15616
2	18677	-508	348	22872
1	18688	1668	-236	15688
2	18688	-440	300	23076
1	18697	1520	-260	15656
2	18697	-416	352	23024
1	18707	1720	-244	15644
2	18707	-536	252	22928
1	18717	1588	-228	15800
2	18717	-468	296	22984
1	18727	1624	-152	15652
2	18727	-472	336	22980
1	18737	1544	-364	15640
2	18737	-512	304	23012
1	18747	1572	-300	15696
2	18747	-556	296	23052
1	18757	1692	-292	15532
2	18757	-468	332	23068
1	18767	1668	-312	15660
2	18767	-484	304	23112
1	18777	1748	-236	15696
2	18777	-416	228	22888
1	18787	1596	-288	15704
2	18787	-568	284	23020
1	18797	1612	-268	15748
2	18797	-456	316	22944
1	18807	1644	-312	15660
2	18807	-456	312	22956
1	18817	1640	-256	15872
2	18817	-532	308	22916
1	18827	1544	-252	15732
2	18827	-572	300	23016
1	18837	1576	-296	15460
2	18837	-460	304	22856
1	18847	1664	-244	15716
2	18847	-500	368	22980
1	18857	1664	-264	15740
2	18857	-448	328	22988
1	18867	1608	-268	15728
2	18867	-512	340	22952
1	18877	1656	-240	15756
2	18877	-492	336	22984
1	18887	1660	-324	15740
2	18887	-488	360	22988
1	18897	1444	-276	15768
2	18897	-440	360	22996
1	18907	1524	-304	15676
2	18907	-544	292	22876
1	18917	1668	-196	15628
2	18917	-516	252	22992
1	18927	1592	-316	15620
2	18927	-492	316	22888
1	18937	1660	-252	15768
2	18937	-476	296	22872
1	18947	1564	-324	15652
2	18947	-576	324	22948
1	18957	1548	-232	15644
2	18957	-516	256	22816
1	18967	1688	-180	15756
2	18967	-504	292	23032
1	18977	1624	-288	15684
2	18977	-472	344	22972
1	18987	1516	-260	15752
2	18987	-508	396	22960
1	18997	1520	-276	15748
2	18997	-528	380	23004
1	19007	1632	-284	15608
2	19007	-524	288	23064
1	19017	1640	-248	15656
2	19017	-596	336	23072
1	19027	1608	-264	15580
2	19027	-464	220	23028
1	19037	1488	-220	15640
2	19037	-436	368	22900
1	19047	1564	-316	15904
2	19047	-476	328	22996
1	19057	1668	-284	15804
2	19057	-468	324	22976
1	19067	1680	-292	15728
2	19067	-524	356	22872
1	19077	1668	-260	15644
2	19077	-556	380	23004
1	19087	1544	-224	15632
2	19087	-472	344	22812
1	19097	1532	-136	15620
2	19097	-484	368	22984
1	19107	1628	-224	15684
2	19107	-464	332	23020
1	19117	1616	-256	15640
2	19117	-508	212	23044
1	19127	1724	-248	15636
2	19127	-444	300	23056
1	19137	1648	-352	15728
2	19137	-476	268	23096
1	19147	1632	-256	15776
2	19147	-508	272	22872
1	19158	1680	-296	15768
2	19158	-492	236	22908
1	19167	1624	-216	15628
2	19167	-500	368	23116
1	19177	1668	-344	15684
2	19177	-460	320	22840
1	19187	1572	-228	15688
2	19187	-492	308	23132
1	19197	1596	-196	15632
2	19197	-468	308	22896
1	19207	1644	-200	15688
2	19207	-488	256	22968
1	19217	1644	-348	15712
2	19217	-560	232	22908
1	19227	1568	-272	15744
2	19227	-468	280	22956
1	19237	1588	-196	15720
2	19237	-436	324	22988
1	19247	1716	-240	15692
2	19247	-472	328	22984
1	19257	1636	-352	15532
2	19257	-388	356	23016
1	19267	1456	-272	15672
2	19267	-460	232	22952
1	19277	1644	-256	15720
2	19277	-432	324	23036
1	19287	1588	-260	15672
2	19287	-524	292	22964
1	19297	1636	-216	15680
2	19297	-492	248	22924
1	19307	1600	-232	15660
2	19307	-552	284	22956
1	19317	1580	-264	15676
2	19317	-588	164	23000
1	19328	1484	-288	15632
2	19328	-572	288	22892
1	19337	1644	-216	15712
2	19337	-504	240	23028
1	19347	1708	-304	15636
2	19347	-468	264	22884
1	19357	1648	-252	15640
2	19357	-504	284	23008
1	19367	1720	-288	15636
2	19367	-484	196	23048
1	19377	1800	-332	15768
2	19377	-436	260	23088
1	19387	1608	-260	15764
2	19387	-504	344	22940
1	19397	1664	-208	15576
2	19397	-456	256	22912
1	19407	1648	-220	15736
2	19407	-404	364	23116
1	19417	1644	-276	15684
2	19417	-572	328	22968
1	19427	1652	-252	15656
2	19427	-484	372	22972
1	19437	1664	-228	15716
2	19437	-428	244	23004
1	19447	1596	-360	15652
2	19447	-504	312	23052
1	19457	1624	-332	15688
2	19457	-460	264	22980
1	19467	1668	-268	15688
2	19467	-488	296	22984
1	19477	1616	-348	15736
2	19477	-464	220	22888
1	19487	1668	-328	15688
2	19487	-504	256	22936
1	19497	1596	-244	15700
2	19497	-548	272	22924
1	19507	1568	-268	15600
2	19507	-432	392	23016
1	19517	1544	-372	15772
2	19517	-524	432	22856
1	19527	1572	-248	15676
2	19527	-508	396	22916
1	19537	1604	-224	15836
2	19537	-568	376	22964
1	19547	1700	-204	15780
2	19547	-488	412	22992
1	19557	1612	-212	15604
2	19557	-464	376	22880
1	19567	1540	-228	15636
2	19567	-428	248	22864
1	19577	1680	-220	15752
2	19577	-440	300	23080
1	19587	1740	-180	15708
2	19587	-552	280	23068
1	19597	1584	-248	15756
2	19597	-544	436	22808
1	19607	1600	-296	15656
2	19607	-424	332	23008
1	19617	1588	-280	15748
2	19617	-504	328	22916
1	19627	1596	-332	15704
2	19627	-552	392	22892
1	19637	1616	-260	15640
2	19637	-484	272	23116
1	19647	1548	-440	15764
2	19647	-444	244	22964
1	19657	1612	-348	15800
2	19657	-516	340	23152
1	19667	1708	-272	15668
2	19667	-556	188	22988
1	19677	1656	-320	15712
2	19677	-456	244	23028
1	19687	1564	-360	15720
2	19687	-480	300	22960
1	19697	1592	-176	15616
2	19697	-552	312	22932
1	19707	1704	-264	15708
2	19707	-556	152	22912
1	19717	1560	-228	15648
2	19717	-552	364	22780
1	19727	1636	-284	15616
2	19727	-500	284	23008
1	19737	1752	-200	15796
2	19737	-588	276	23004
1	19747	1572	-244	15720
2	19747	-580	328	23060
1	19757	1652	-344	15676
2	19757	-524	324	22956
1	19767	1580	-232	15684
2	19767	-432	288	22952
1	19777	1600	-288	15844
2	19777	-436	340	22860
1	19787	1672	-284	15684
2	19787	-444	384	23068
1	19798	1548	-276	15648
2	19798	-508	340	22952
1	19807	1604	-376	15704
2	19807	-468	264	23064
1	19817	1628	-300	15640
2	19817	-492	392	23088
1	19827	1584	-260	15804
2	19827	-480	344	22940
1	19837	1652	-204	15712
2	19837	-572	292	23032
1	19847	1668	-256	15564
2	19847	-552	444	23104
1	19857	1652	-256	15688
2	19857	-468	360	22856
1	19867	1676	-176	15664
2	19867	-548	324	23208
1	19877	1708	-236	15712
2	19877	-384	252	23020
1	19887	1716	-264	15564
2	19887	-480	316	23024
1	19897	1668	-260	15680
2	19897	-544	408	22944
1	19907	1576	-308	15772
2	19907	-460	248	22932
1	19917	1596	-276	15824
2	19917	-540	232	22864
1	19927	1684	-244	15736
2	19927	-568	204	23076
1	19937	1572	-284	15660
2	19937	-484	328	22936
1	19947	1660	-244	15660
2	19947	-468	244	22948
1	19957	1616	-352	15676
2	19957	-544	412	22916
1	19968	1640	-272	15720
2	19968	-492	228	22980
1	19977	1644	-272	15760
2	19977	-448	328	22956
1	19987	1656	-368	15772
2	19987	-492	372	23072
1	19997	1748	-304	15724
2	19997	-488	364	22908
1	20007	1740	-348	15588
2	20007	-520	368	23092
1	20017	1608	-152	15856
2	20017	-488	288	23080
1	20027	1588	-300	15784
2	20027	-364	268	22964
1	20037	1640	-284	15756
2	20037	-496	388	22956
1	20047	1604	-280	15696
2	20047	-532	312	23044
1	20057	1688	-296	15660
2	20057	-528	284	22852
1	20067	1628	-312	15652
2	20067	-520	288	23020
1	20077	1644	-308	15760
2	20077	-504	332	22996
1	20087	1688	-284	15672
2	20087	-508	352	22920
1	20097	1640	-268	15616
2	20097	-552	184	23040
1	20107	1696	-240	15804
2	20107	-524	300	22976
1	20117	1664	-344	15580
2	20117	-468	340	22956
1	20127	1652	-312	15652
2	20127	-444	292	22896
1	20137	1612	-340	15688
2	20137	-492	236	23044
1	20147	1620	-236	15820
2	20147	-560	276	23028
1	20157	1708	-328	15588
2	20157	-448	324	22896
1	20167	1712	-288	15768
2	20167	-424	320	23016
1	20177	1648	-196	15744
2	20177	-576	352	22960
1	20187	1640	-280	15772
2	20187	-424	424	23012
1	20197	1668	-228	15680
2	20197	-500	368	22880
1	20207	1616	-352	15660
2	20207	-432	300	22960
1	20217	1652	-232	15744
2	20217	-612	308	22904
1	20227	1604	-276	15648
2	20227	-448	312	23012
1	20237	1592	-184	15568
2	20237	-508	416	23080
1	20247	1584	-180	15740
2	20247	-560	324	23124
1	20257	1616	-244	15728
2	20257	-488	280	22876
1	20267	1652	-244	15508
2	20267	-448	288	22960
1	20277	1600	-224	15780
2	20277	-428	320	23032
1	20287	1572	-280	15724
2	20287	-488	432	22928
1	20297	1592	-188	15680
2	20297	-528	344	22880
1	20307	1512	-312	15588
2	20307	-524	384	23108
1	20317	1736	-300	15692
2	20317	-452	324	22960
1	20327	1632	-244	15720
2	20327	-452	328	22960
1	20337	1528	-264	15788
2	20337	-572	304	22988
1	20347	1704	-356	15864
2	20347	-556	392	23020
1	20357	1580	-272	15788
2	20357	-480	372	23008
1	20367	1512	-252	15632
2	20367	-468	360	23140
1	20377	1704	-312	15736
2	20377	-476	276	22900
1	20387	1640	-188	15696
2	20387	-540	344	22696
1	20397	1704	-312	15544
2	20397	-468	344	23068
1	20407	1656	-248	15760
2	20407	-440	396	22992
1	20417	1540	-272	15804
2	20417	-480	340	22892
1	20427	1692	-296	15676
2	20427	-488	276	22832
1	20438	1680	-240	15604
2	20438	-528	284	22964
1	20447	1600	-300	15656
2	20447	-496	224	22896
1	20457	1584	-196	15752
2	20457	-548	364	22896
1	20467	1640	-280	15632
2	20467	-436	344	23056
1	20477	1592	-276	15764
2	20477	-428	292	23084
1	20487	1620	-280	15688
2	20487	-448	304	22896
1	20497	1576	-284	15628
2	20497	-480	320	22944
1	20507	1684	-220	15740
2	20507	-556	324	22796
1	20517	1572	-316	15752
2	20517	-492	276	23020
1	20527	1636	-236	15624
2	20527	-532	248	22876
1	20537	1672	-280	15624
2	20537	-504	340	22940
1	20547	1600	-276	15696
2	20547	-456	320	22980
1	20557	1636	-248	15752
2	20557	-440	396	23084
1	20567	1656	-248	15780
2	20567	-588	268	23000
1	20577	1648	-232	15588
2	20577	-420	404	22980
1	20587	1660	-292	15752
2	20587	-468	252	23076
1	20597	1540	-304	15692
2	20597	-480	272	23000
1	20608	1648	-240	15680
2	20608	-420	232	23020
1	20617	1692	-264	15656
2	20617	-464	332	22976
1	20627	1652	-256	15768
2	20627	-480	344	22844
1	20637	1704	-276	15608
2	20637	-604	316	22900
1	20647	1648	-300	15772
2	20647	-504	368	23004
1	20657	1696	-320	15720
2	20657	-476	300	23108
1	20667	1660	-276	15748
2	20667	-528	368	23036
1	20677	1668	-220	15584
2	20677	-540	372	22992
1	20687	1624	-200	15692
2	20687	-444	328	23072
1	20697	1616	-252	15732
2	20697	-448	272	23012
1	20707	1668	-208	15720
2	20707	-416	388	22936
1	20717	1768	-260	15560
2	20717	-444	312	22948
1	20727	1704	-332	15680
2	20727	-456	256	23008
1	20737	1492	-312	15620
2	20737	-492	384	22988
1	20747	1584	-344	15672
2	20747	-436	280	22924
1	20757	1632	-256	15604
2	20757	-544	432	22996
1	20767	1636	-244	15736
2	20767	-480	300	22924
1	20777	1592	-308	15712
2	20777	-396	296	22944
1	20787	1632	-304	15712
2	20787	-388	328	22916
1	20797	1704	-224	15600
2	20797	-488	244	22900
1	20807	1660	-320	15704
2	20807	-508	260	22952
1	20817	1608	-276	15652
2	20817	-540	312	23096
1	20827	1664	-212	15728
2	20827	-428	300	23048
1	20837	1580	-264	15608
2	20837	-472	460	22916
1	20847	1672	-280	15680
2	20847	-476	304	22968
1	20857	1520	-216	15604
2	20857	-560	408	22908
1	20867	1688	-216	15820
2	20867	-448	268	23108
1	20877	1660	-304	15760
2	20877	-448	308	22904
1	20887	1660	-252	15724
2	20887	-556	404	23000
1	20897	1632	-296	15696
2	20897	-508	372	22980
1	20907	1664	-300	15892
2	20907	-544	304	22868
1	20917	1648	-244	15752
2	20917	-492	460	23136
1	20927	1616	-140	15804
2	20927	-520	340	22924
1	20937	1592	-268	15680
2	20937	-508	352	22896
1	20947	1560	-308	15828
2	20947	-532	396	22928
1	20957	1596	-212	15728
2	20957	-460	284	22804
1	20967	1636	-340	15584
2	20967	-516	392	22952
1	20977	1636	-304	15712
2	20977	-464	296	22964
1	20987	1644	-292	15740
2	20987	-544	340	22960
1	20997	1704	-348	15628
2	20997	-476	316	22904
1	21007	1672	-244	15700
2	21007	-384	480	22936
1	21017	1600	-292	15640
2	21017	-492	332	23048
1	21027	1616	-216	15780
2	21027	-456	184	23084
1	21037	1708	-232	15704
2	21037	-424	300	22948
1	21047	1612	-316	15604
2	21047	-520	200	22932
1	21057	1652	-212	15728
2	21057	-480	328	23020
1	21067	1624	-128	15796
2	21067	-468	376	23000
1	21078	1588	-324	15832
2	21078	-488	236	22996
1	21087	1616	-256	15784
2	21087	-444	304	22876
1	21097	1588	-260	15528
2	21097	-452	340	22932
1	21107	1744	-288	15656
2	21107	-524	308	22928
1	21117	1664	-324	15608
2	21117	-468	264	22952
1	21127	1556	-288	15660
2	21127	-492	304	22972
1	21137	1680	-316	15820
2	21137	-544	320	23040
1	21147	1644	-156	15704
2	21147	-416	432	22968
1	21157	1608	-272	15676
2	21157	-520	364	23168
1	21167	1748	-272	15656
2	21167	-460	296	22916
1	21177	1712	-164	15632
2	21177	-492	320	22848
1	21187	1640	-296	15748
2	21187	-428	304	22896
1	21197	1640	-180	15680
2	21197	-488	284	22844
1	21207	1660	-360	15704
2	21207	-540	304	22972
1	21217	1608	-216	15552
2	21217	-496	244	22912
1	21227	1688	-248	15564
2	21227	-504	280	23020
1	21237	1680	-284	15772
2	21237	-536	328	23148
1	21248	1620	-324	15668
2	21248	-464	404	22936
1	21257	1700	-304	15812
2	21257	-564	340	22992
1	21267	1588	-268	15524
2	21267	-476	256	22868
1	21277	1664	-172	15612
2	21277	-492	324	23032
1	21287	1676	-188	15648
2	21287	-488	256	23040
1	21297	1688	-192	15632
2	21297	-476	372	23040
1	21307	1720	-288	15808
2	21307	-532	288	23032
1	21317	1620	-212	15664
2	21317	-528	332	23060
1	21327	1612	-256	15608
2	21327	-544	344	22956
1	21337	1612	-312	15676
2	21337	-492	312	23004
1	21347	1604	-116	15596
2	21347	-524	312	23036
1	21357	1604	-340	15640
2	21357	-404	352	22920
1	21367	1580	-292	15548
2	21367	-520	280	22860
1	21377	1660	-240	15588
2	21377	-520	296	23064
1	21387	1572	-252	15624
2	21387	-508	356	22972
1	21397	1636	-220	15716
2	21397	-528	368	23048
1	21407	1664	-176	15584
2	21407	-480	244	22988
1	21417	1572	-280	15760
2	21417	-472	276	23016
1	21427	1680	-368	15616
2	21427	-532	316	22964
1	21437	1680	-296	15624
2	21437	-532	376	22884
1	21447	1636	-300	15580
2	21447	-440	316	22960
1	21457	1584	-284	15612
2	21457	-512	336	22884
1	21467	1644	-196	15688
2	21467	-464	224	23016
1	21477	1640	-256	15604
2	21477	-520	372	23004
1	21487	1624	-196	15748
2	21487	-460	260	22916
1	21497	1612	-176	15780
2	21497	-460	236	23004
1	21507	1624	-256	15616
2	21507	-476	384	23152
1	21517	1628	-236	15744
2	21517	-460	340	23060
1	21527	1660	-264	15684
2	21527	-508	368	23020
1	21537	1708	-280	15636
2	21537	-520	292	22980
1	21547	1592	-228	15800
2	21547	-492	360	23048
1	21557	1604	-264	15832
2	21557	-480	348	23028
1	21567	1704	-352	15572
2	21567	-472	408	23104
1	21577	1708	-288	15688
2	21577	-560	260	23060
1	21587	1560	-356	15736
2	21587	-468	344	23024
1	21597	1624	-312	15708
2	21597	-508	308	22992
1	21607	1684	-360	15760
2	21607	-508	172	22940
1	21617	1592	-284	15696
2	21617	-464	348	23028
1	21627	1684	-296	15708
2	21627	-452	336	23016
1	21637	1660	-140	15752
2	21637	-452	352	22992
1	21647	1620	-292	15672
2	21647	-444	280	22936
1	21657	1644	-280	15736
2	21657	-508	244	22976
1	21667	1656	-288	15584
2	21667	-420	260	23012
1	21677	1660	-304	15740
2	21677	-504	380	22900
1	21687	1556	-180	15616
2	21687	-448	272	22976
1	21697	1616	-180	15736
2	21697	-516	384	23000
1	21707	1616	-256	15728
2	21707	-532	364	22896
1	21718	1652	-312	15500
2	21718	-440	272	22936
1	21727	1720	-212	15612
2	21727	-408	324	23000
1	21737	1616	-292	15800
2	21737	-364	224	23008
1	21747	1696	-312	15604
2	21747	-464	280	23012
1	21757	1572	-256	15688
2	21757	-408	380	22976
1	21767	1604	-288	15696
2	21767	-592	352	23016
1	21777	1656	-272	15704
2	21777	-576	312	22972
1	21787	1588	-260	15704
2	21787	-484	336	23104
1	21797	1532	-312	15808
2	21797	-568	384	23016
1	21807	1540	-336	15744
2	21807	-476	340	23076
1	21817	1660	-288	15664
2	21817	-472	272	23000
1	21827	1680	-292	15640
2	21827	-488	368	22852
1	21837	1620	-240	15720
2	21837	-532	352	22912
1	21847	1636	-292	15768
2	21847	-484	324	23060
1	21857	1576	-280	15652
2	21857	-480	296	22880
1	21867	1644	-288	15760
2	21867	-532	288	22952
1	21877	1576	-208	15680
2	21877	-468	404	22896
1	21888	1612	-192	15640
2	21888	-468	308	22848
1	21897	1724	-252	15716
2	21897	-480	328	23168
1	21907	1628	-272	15604
2	21907	-488	304	22952
1	21917	1684	-300	15804
2	21917	-516	316	23104
1	21927	1572	-168	15652
2	21927	-488	356	23008
1	21937	1732	-264	15656
2	21937	-492	252	23072
1	21947	1504	-280	15672
2	21947	-512	288	22984
1	21957	1604	-252	15536
2	21957	-384	268	23008
1	21967	1636	-268	15696
2	21967	-524	264	23064
1	21977	1696	-308	15740
2	21977	-448	348	22992
1	21987	1680	-236	15740
2	21987	-552	292	22928
1	21997	1616	-232	15668
2	21997	-408	272	22948
1	22007	1628	-228	15756
2	22007	-476	204	22960
1	22017	1612	-324	15644
2	22017	-464	236	22932
1	22027	1688	-252	15744
2	22027	-456	372	22992
1	22037	1696	-220	15768
2	22037	-480	356	22928
1	22047	1644	-308	15812
2	22047	-468	320	22996
1	22057	1612	-324	15608
2	22057	-544	380	22904
1	22067	1628	-200	15680
2	22067	-480	348	23028
1	22077	1588	-212	15656
2	22077	-564	280	22896
1	22087	1620	-308	15748
2	22087	-596	260	22860
1	22097	1604	-320	15912
2	22097	-548	296	22928
1	22107	1608	-264	15608
2	22107	-464	336	22968
1	22117	1628	-296	15664
2	22117	-392	288	22968
1	22127	1516	-340	15656
2	22127	-436	308	23000
1	22137	1720	-312	15776
2	22137	-436	316	22968
1	22147	1580	-352	15716
2	22147	-496	324	22956
1	22157	1532	-164	15756
2	22157	-572	340	22908
1	22167	1724	-212	15860
2	22167	-440	316	22900
1	22177	1584	-332	15780
2	22177	-460	444	23012
1	22187	1608	-180	15804
2	22187	-504	344	22992
1	22197	1624	-320	15728
2	22197	-472	264	23060
1	22207	1672	-220	15688
2	22207	-488	312	22924
1	22217	1556	-272	15680
2	22217	-492	312	22872
1	22227	1596	-216	15684
2	22227	-564	340	22996
1	22237	1648	-284	15812
2	22237	-508	260	22976
1	22247	1680	-296	15620
2	22247	-500	260	22956
1	22257	1608	-264	15664
2	22257	-384	360	22956
1	22267	1592	-356	15656
2	22267	-464	268	22972
1	22277	1604	-328	15676
2	22277	-468	296	23044
1	22287	1616	-304	15664
2	22287	-436	324	23068
1	22297	1776	-296	15644
2	22297	-496	316	22876
1	22307	1616	-288	15776
2	22307	-428	280	23048
1	22317	1640	-164	15652
2	22317	-432	236	23012
1	22327	1700	-256	15764
2	22327	-532	300	23012
1	22337	1572	-280	15576
2	22337	-408	320	22928
1	22347	1680	-176	15760
2	22347	-524	264	23096
1	22358	1612	-332	15708
2	22358	-456	320	22972
1	22367	1660	-328	15716
2	22367	-588	316	23064
1	22377	1600	-240	15764
2	22377	-476	236	23056
1	22387	1604	-252	15660
2	22387	-416	344	22832
1	22397	1684	-288	15804
2	22397	-532	304	22952
1	22407	1548	-256	15628
2	22407	-508	184	23032
1	22417	1664	-156	15800
2	22417	-584	284	22928
1	22427	1616	-344	15760
2	22427	-456	280	22900
1	22437	1640	-248	15760
2	22437	-552	368	22988
1	22447	1672	-292	15820
2	22447	-428	252	22984
1	22457	1572	-260	15684
2	22457	-520	440	22748
1	22467	1668	-292	15700
2	22467	-520	368	23072
1	22477	1720	-308	15676
2	22477	-568	312	22984
1	22487	1680	-212	15796
2	22487	-476	292	22868
1	22497	1624	-240	15748
2	22497	-448	252	22976
1	22507	1620	-260	15620
2	22507	-500	368	23048
1	22517	1576	-216	15688
2	22517	-552	332	23040
1	22528	1656	-288	15724
2	22528	-576	184	22964
1	22537	1644	-328	15820
2	22537	-556	312	22984
1	22547	1580	-268	15744
2	22547	-460	304	23028
1	22557	1632	-292	15792
2	22557	-448	296	23024
1	22567	1680	-208	15700
2	22567	-500	300	22984
1	22577	1528	-268	15776
2	22577	-436	324	23032
1	22587	1620	-300	15696
2	22587	-460	284	22908
1	22597	1620	-352	15680
2	22597	-548	308	23012
1	22607	1616	-284	15732
2	22607	-428	452	22908
1	22617	1584	-328	15736
2	22617	-520	320	22860
1	22627	1652	-264	15808
2	22627	-484	284	23028
1	22637	1604	-232	15712
2	22637	-400	276	23084
1	22647	1608	-256	15712
2	22647	-504	372	23040
1	22657	1628	-304	15776
2	22657	-552	328	22968
1	22667	1608	-196	15656
2	22667	-588	360	22984
1	22677	1572	-260	15636
2	22677	-516	268	23020
1	22687	1716	-264	15592
2	22687	-452	340	23068
1	22697	1648	-304	15608
2	22697	-476	348	23040
1	22707	1592	-264	15672
2	22707	-508	292	22888
1	22717	1696	-368	15744
2	22717	-508	292	23000
1	22727	1684	-192	15800
2	22727	-452	308	22968
1	22737	1672	-240	15828
2	22737	-604	360	22896
1	22747	1644	-300	15624
2	22747	-488	404	23004
1	22757	1636	-264	15752
2	22757	-416	360	23056
1	22767	1636	-308	15600
2	22767	-528	316	23160
1	22777	1604	-240	15624
2	22777	-464	332	23096
1	22787	1668	-200	15760
2	22787	-572	368	22940
1	22797	1588	-280	15588
2	22797	-568	196	22932
1	22807	1668	-280	15596
2	22807	-532	336	23008
1	22817	1612	-248	15644
2	22817	-504	212	22892
1	22827	1704	-300	15488
2	22827	-528	312	22964
1	22837	1624	-164	15576
2	22837	-472	340	22944
1	22847	1680	-176	15792
2	22847	-532	292	23096
1	22857	1640	-312	15728
2	22857	-464	304	22824
1	22867	1564	-256	15596
2	22867	-576	264	22980
1	22877	1608	-244	15712
2	22877	-496	288	22948
1	22887	1628	-252	15716
2	22887	-540	364	23008
1	22897	1624	-280	15784
2	22897	-500	332	22904
1	22907	1516	-212	15640
2	22907	-576	340	22924
1	22917	1660	-368	15764
2	22917	-564	252	23008
1	22927	1668	-308	15636
2	22927	-476	276	22928
1	22937	1656	-212	15760
2	22937	-484	372	23012
1	22947	1652	-332	15772
2	22947	-456	348	22936
1	22957	1680	-316	15720
2	22957	-436	264	22988
1	22967	1740	-200	15752
2	22967	-556	304	22924
1	22977	1548	-284	15736
2	22977	-568	312	22940
1	22987	1668	-208	15744
2	22987	-492	348	22976
1	22998	1708	-268	15636
2	22998	-476	336	23016
1	23007	1640	-320	15664
2	23007	-464	268	22876
1	23017	1656	-204	15612
2	23017	-456	228	22872
1	23027	1668	-252	15712
2	23027	-480	468	23024
1	23037	1732	-240	15508
2	23037	-488	320	23004
1	23047	1596	-208	15752
2	23047	-480	312	22960
1	23057	1708	-200	15720
2	23057	-456	300	22880
1	23067	1704	-176	15828
2	23067	-440	220	22968
1	23077	1520	-240	15792
2	23077	-604	352	23068
1	23087	1620	-300	15668
2	23087	-424	296	23040
1	23097	1628	-260	15600
2	23097	-492	352	23000
1	23107	1688	-356	15716
2	23107	-496	324	22908
1	23117	1620	-220	15616
2	23117	-416	312	22952
1	23127	1584	-140	15636
2	23127	-500	296	23036
1	23137	1648	-212	15584
2	23137	-512	340	22896
1	23147	1676	-324	15720
2	23147	-444	368	22880
1	23157	1660	-292	15652
2	23157	-464	276	23044
1	23168	1580	-216	15804
2	23168	-464	308	22852
1	23177	1712	-240	15760
2	23177	-468	368	22972
1	23187	1676	-192	15748
2	23187	-532	236	22976
1	23197	1716	-312	15780
2	23197	-476	428	22976
1	23207	1580	-444	15644
2	23207	-532	320	23000
1	23217	1684	-288	15668
2	23217	-444	404	22984
1	23227	1612	-324	15688
2	23227	-468	288	22968
1	23237	1596	-324	15656
2	23237	-488	340	22928
1	23247	1608	-332	15796
2	23247	-436	392	23096
1	23257	1584	-220	15628
2	23257	-536	272	23020
1	23267	1668	-224	15740
2	23267	-472	236	23048
1	23277	1640	-264	15688
2	23277	-552	336	23016
1	23287	1652	-300	15600
2	23287	-456	296	22840
1	23297	1740	-272	15780
2	23297	-532	248	22952
1	23307	1484	-220	15856
2	23307	-528	276	22928
1	23317	1688	-240	15700
2	23317	-472	436	22972
1	23327	1564	-204	15664
2	23327	-484	408	23104
1	23337	1764	-304	15632
2	23337	-484	356	22864
1	23347	1612	-324	15696
2	23347	-516	328	23028
1	23357	1624	-252	15836
2	23357	-456	284	22816
1	23367	1592	-232	15688
2	23367	-512	164	22856
1	23377	1620	-292	15728
2	23377	-552	360	22984
1	23387	1696	-284	15788
2	23387	-472	308	22952
1	23397	1604	-228	15576
2	23397	-576	380	22968
1	23407	1688	-204	15712
2	23407	-464	264	22908
1	23417	1708	-300	15584
2	23417	-472	280	22928
1	23427	1604	-228	15728
2	23427	-520	320	23116
1	23437	1592	-264	15620
2	23437	-480	356	23156
1	23447	1660	-232	15672
2	23447	-488	304	23036
1	23457	1668	-212	15712
2	23457	-556	356	23040
1	23467	1592	-328	15796
2	23467	-484	396	22856
1	23477	1684	-240	15576
2	23477	-412	296	23096
1	23487	1524	-296	15624
2	23487	-532	424	23012
1	23497	1620	-296	15716
2	23497	-612	380	22960
1	23507	1668	-312	15692
2	23507	-432	416	22984
1	23517	1712	-168	15652
2	23517	-496	312	22788
1	23527	1612	-292	15656
2	23527	-516	252	23096
1	23537	1680	-200	15632
2	23537	-516	316	22920
1	23547	1548	-268	15720
2	23547	-532	416	22988
1	23557	1580	-264	15632
2	23557	-492	372	22976
1	23567	1688	-304	15760
2	23567	-528	340	23056
1	23577	1632	-284	15704
2	23577	-472	276	22996
1	23587	1712	-236	15708
2	23587	-468	400	22932
1	23597	1728	-320	15772
2	23597	-488	348	22992
1	23607	1552	-280	15636
2	23607	-544	236	23028
1	23617	1696	-348	15628
2	23617	-476	400	23080
1	23627	1524	-304	15716
2	23627	-480	408	22828
1	23638	1508	-344	15736
2	23638	-508	340	22948
1	23647	1620	-240	15740
2	23647	-520	404	22988
1	23657	1660	-240	15756
2	23657	-556	280	22904
1	23667	1572	-308	15584
2	23667	-560	360	22968
1	23677	1608	-264	15608
2	23677	-516	276	22836
1	23687	1660	-260	15788
2	23687	-404	244	23080
1	23697	1608	-280	15628
2	23697	-472	188	22940
1	23707	1656	-308	15628
2	23707	-460	312	22976
1	23717	1556	-268	15696
2	23717	-452	228	23028
1	23727	1664	-188	15764
2	23727	-480	360	23148
1	23737	1668	-336	15648
2	23737	-572	320	22996
1	23747	1564	-304	15692
2	23747	-484	304	23044
1	23757	1592	-284	15656
2	23757	-516	304	23076
1	23767	1552	-340	15644
2	23767	-584	300	22888
1	23777	1660	-260	15572
2	23777	-444	416	22992
1	23787	1668	-204	15656
2	23787	-540	208	23004
1	23797	1644	-284	15712
2	23797	-508	316	22944
1	23808	1600	-204	15652
2	23808	-560	236	22976
1	23817	1644	-196	15632
2	23817	-444	360	23088
1	23827	1652	-212	15560
2	23827	-572	308	22916
1	23837	1616	-296	15712
2	23837	-532	308	22868
1	23847	1660	-304	15544
2	23847	-532	292	22912
1	23857	1648	-304	15776
2	23857	-420	316	23036
1	23867	1604	-228	15720
2	23867	-504	284	23040
1	23877	1692	-292	15688
2	23877	-500	364	22976
1	23887	1604	-312	15628
2	23887	-488	280	22944
1	23897	1604	-308	15772
2	23897	-508	340	22960
1	23907	1708	-360	15892
2	23907	-588	196	23036
1	23917	1704	-352	15656
2	23917	-488	368	23036
1	23927	1612	-312	15700
2	23927	-412	304	23012
1	23937	1608	-308	15716
2	23937	-512	304	22944
1	23947	1600	-364	15592
2	23947	-424	348	23012
1	23957	1668	-144	15588
2	23957	-504	392	23136
1	23967	1660	-312	15704
2	23967	-508	332	22988
1	23977	1528	-244	15728
2	23977	-536	252	23008
1	23987	1668	-192	15664
2	23987	-452	300	23036
1	23997	1652	-276	15664
2	23997	-532	312	23096
1	24007	1664	-220	15692
2	24007	-488	296	22884
1	24017	1604	-244	15600
2	24017	-568	356	23092
1	24027	1568	-252	15672
2	24027	-432	296	22908
1	24037	1644	-240	15628
2	24037	-556	436	22912
1	24047	1648	-312	15692
2	24047	-464	340	22804
1	24057	1688	-268	15684
2	24057	-568	280	23032
1	24067	1656	-324	15756
2	24067	-440	388	23112
1	24077	1584	-284	15728
2	24077	-404	244	23076
1	24087	1640	-348	15656
2	24087	-656	348	22884
1	24097	1660	-208	15700
2	24097	-520	324	23064
1	24107	1616	-300	15720
2	24107	-428	388	23068
1	24117	1696	-240	15664
2	24117	-512	220	22992
1	24127	1672	-252	15672
2	24127	-584	352	23152
1	24137	1620	-304	15644
2	24137	-496	316	23016
1	24147	1628	-288	15768
2	24147	-500	352	22948
1	24157	1652	-320	15680
2	24157	-488	252	23004
1	24167	1696	-272	15768
2	24167	-596	240	23028
1	24177	1628	-200	15736
2	24177	-468	364	23172
1	24187	1616	-180	15696
2	24187	-512	316	23120
1	24197	1632	-360	15584
2	24197	-484	360	22948
1	24207	1644	-216	15760
2	24207	-540	260	22928
1	24217	1668	-200	15704
2	24217	-572	292	23008
1	24227	1616	-248	15692
2	24227	-424	316	23092
1	24237	1656	-240	15640
2	24237	-476	324	23232
1	24247	1572	-344	15552
2	24247	-560	384	22996
1	24257	1660	-148	15536
2	24257	-520	296	23036
1	24267	1624	-244	15564
2	24267	-500	372	23076
1	24278	1652	-196	15620
2	24278	-508	376	22972
1	24287	1584	-252	15648
2	24287	-536	372	23032
1	24297	1632	-264	15640
2	24297	-480	312	23024
1	24307	1676	-284	15776
2	24307	-428	268	22988
1	24317	1592	-128	15744
2	24317	-592	284	23040
1	24327	1580	-320	15592
2	24327	-424	376	23052
1	24337	1592	-192	15668
2	24337	-436	280	22812
1	24347	1672	-232	15868
2	24347	-528	296	22912
1	24357	1564	-248	15692
2	24357	-504	352	22960
1	24367	1640	-288	15644
2	24367	-428	328	22952
1	24377	1736	-276	15704
2	24377	-472	352	23008
1	24387	1556	-188	15664
2	24387	-416	216	22832
1	24397	1720	-324	15672
2	24397	-472	352	23008
1	24407	1628	-176	15664
2	24407	-480	336	22996
1	24417	1660	-276	15812
2	24417	-548	312	23012
1	24427	1648	-256	15780
2	24427	-420	328	22956
1	24437	1612	-164	15712
2	24437	-448	188	22872
1	24448	1704	-332	15732
2	24448	-492	364	23104
1	24457	1640	-264	15696
2	24457	-536	276	22988
1	24467	1596	-236	15768
2	24467	-540	404	22920
1	24477	1624	-280	15796
2	24477	-552	228	22984
1	24487	1604	-400	15660
2	24487	-508	296	22912
1	24497	1636	-236	15660
2	24497	-524	404	22796
1	24507	1544	-272	15644
2	24507	-492	380	22976
1	24517	1608	-264	15764
2	24517	-540	312	22956
1	24527	1592	-204	15784
2	24527	-468	340	22948
1	24537	1696	-116	15788
2	24537	-492	312	23020
1	24547	1632	-288	15772
2	24547	-508	336	22932
1	24557	1616	-340	15624
2	24557	-468	292	23168
1	24567	1568	-268	15628
2	24567	-496	320	23012
1	24577	1628	-264	15616
2	24577	-528	316	22948
1	24587	1516	-332	15672
2	24587	-520	244	22884
1	24597	1676	-288	15648
2	24597	-524	320	22876
1	24607	1636	-312	15808
2	24607	-500	396	22916
1	24617	1656	-300	15696
2	24617	-488	300	22996
1	24627	1608	-288	15652
2	24627	-492	340	22996
1	24637	1644	-244	15688
2	24637	-620	348	23028
1	24647	1608	-336	15624
2	24647	-548	296	23016
1	24657	1600	-188	15648
2	24657	-512	288	22884
1	24667	1660	-304	15640
2	24667	-368	352	22856
1	24677	1612	-328	15524
2	24677	-572	256	23068
1	24687	1592	-308	15636
2	24687	-516	340	22968
1	24697	1592	-304	15700
2	24697	-508	376	23084
1	24707	1632	-268	15740
2	24707	-504	408	22996
1	24717	1564	-216	15760
2	24717	-444	344	23096
1	24727	1648	-220	15692
2	24727	-556	328	22956
1	24737	1596	-220	15716
2	24737	-440	360	22844
1	24747	1636	-220	15688
2	24747	-416	404	23156
1	24757	1620	-320	15672
2	24757	-460	296	23040
1	24767	1708	-200	15812
2	24767	-608	160	22908
1	24777	1616	-216	15648
2	24777	-404	296	22988
1	24787	1608	-256	15716
2	24787	-512	384	23040
1	24797	1628	-344	15668
2	24797	-488	200	23056
1	24807	1676	-260	15632
2	24807	-468	336	22956
1	24817	1732	-248	15780
2	24817	-476	312	22956
1	24827	1640	-220	15836
2	24827	-536	436	22948
1	24837	1744	-260	15604
2	24837	-532	436	23040
1	24847	1644	-300	15656
2	24847	-520	392	22944
1	24857	1692	-276	15564
2	24857	-544	312	23012
1	24867	1608	-252	15672
2	24867	-476	396	23112
1	24877	1692	-160	15668
2	24877	-476	360	22960
1	24887	1648	-260	15840
2	24887	-484	372	22948
1	24897	1660	-296	15688
2	24897	-480	356	22948
1	24907	1640	-172	15616
2	24907	-572	240	22864
1	24918	1596	-188	15572
2	24918	-564	404	23036
1	24927	1532	-296	15672
2	24927	-484	364	22944
1	24937	1540	-232	15724
2	24937	-492	352	23016
1	24947	1600	-356	15652
2	24947	-500	468	22948
1	24957	1592	-336	15776
2	24957	-568	380	23112
1	24967	1700	-208	15852
2	24967	-496	376	22916
1	24977	1672	-320	15636
2	24977	-480	268	22896
1	24987	1612	-292	15600
2	24987	-580	360	23008
1	24997	1668	-240	15652
2	24997	-544	280	22908
1	25007	1640	-352	15652
2	25007	-372	316	22956
1	25017	1700	-252	15744
2	25017	-520	392	22964
1	25027	1552	-292	15572
2	25027	-444	432	22824
1	25037	1484	-372	15680
2	25037	-476	464	22936
1	25047	1604	-232	15780
2	25047	-460	280	23052
1	25057	1628	-212	15748
2	25057	-484	232	22964
1	25067	1688	-156	15708
2	25067	-424	292	23088
1	25077	1628	-280	15796
2	25077	-480	280	22952
1	25088	1616	-312	15700
2	25088	-476	292	23068
1	25097	1540	-252	15576
2	25097	-488	312	23088
1	25107	1596	-220	15660
2	25107	-456	340	22844
1	25117	1648	-336	15644
2	25117	-484	372	23060
1	25127	1596	-228	15712
2	25127	-448	316	22836
1	25137	1628	-268	15744
2	25137	-420	344	22960
1	25147	1708	-320	15640
2	25147	-468	236	22956
1	25157	1560	-184	15624
2	25157	-488	272	22844
1	25167	1596	-312	15732
2	25167	-476	288	22928
1	25177	1624	-228	15680
2	25177	-440	232	22988
1	25187	1616	-284	15748
2	25187	-496	272	23032
1	25197	1556	-260	15632
2	25197	-504	280	22988
1	25207	1636	-260	15608
2	25207	-520	308	22948
1	25217	1732	-244	15660
2	25217	-404	324	22936
1	25227	1544	-204	15720
2	25227	-464	356	23052
1	25237	1644	-244	15828
2	25237	-416	364	22924
1	25247	1620	-228	15832
2	25247	-556	276	23080
1	25257	1616	-276	15544
2	25257	-500	328	22928
1	25267	1672	-152	15576
2	25267	-464	336	22900
1	25277	1636	-244	15860
2	25277	-560	356	23072
1	25287	1596	-284	15628
2	25287	-556	348	23048
1	25297	1660	-308	15708
2	25297	-484	424	22868
1	25307	1676	-312	15624
2	25307	-608	388	22952
1	25317	1572	-256	15772
2	25317	-436	316	22940
1	25327	1636	-176	15716
2	25327	-464	292	23124
1	25337	1584	-248	15664
2	25337	-528	228	22968
1	25347	1636	-292	15496
2	25347	-468	372	23172
1	25357	1616	-208	15732
2	25357	-456	368	22792
1	25367	1628	-332	15836
2	25367	-572	244	22964
1	25377	1632	-256	15612
2	25377	-552	344	23020
1	25387	1660	-336	15684
2	25387	-520	272	23004
1	25397	1752	-284	15820
2	25397	-400	388	22928
1	25407	1676	-264	15596
2	25407	-488	324	22992
1	25417	1700	-224	15592
2	25417	-420	320	23024
1	25427	1648	-228	15672
2	25427	-476	248	23020
1	25437	1652	-288	15792
2	25437	-516	364	22948
1	25447	1736	-312	15656
2	25447	-448	348	22892
1	25457	1660	-268	15724
2	25457	-504	320	23048
1	25467	1596	-328	15680
2	25467	-568	240	22988
1	25477	1652	-244	15640
2	25477	-564	268	22892
1	25487	1720	-232	15804
2	25487	-568	404	22816
1	25497	1680	-268	15728
2	25497	-408	328	23180
1	25507	1700	-280	15700
2	25507	-424	256	22944
1	25517	1672	-284	15784
2	25517	-452	276	23020
1	25527	1592	-148	15616
2	25527	-436	252	22928
1	25537	1552	-240	15752
2	25537	-560	320	22868
1	25547	1620	-216	15604
2	25547	-560	360	23056
1	25558	1736	-260	15820
2	25558	-516	252	22836
1	25567	1608	-260	15724
2	25567	-492	292	23068
1	25577	1588	-288	15752
2	25577	-464	348	23040
1	25587	1624	-260	15576
2	25587	-508	292	22972
1	25597	1616	-196	15724
2	25597	-476	212	22892
1	25607	1632	-328	15672
2	25607	-432	304	22952
1	25617	1644	-176	15552
2	25617	-504	212	22932
1	25627	1576	-228	15588
2	25627	-472	260	22984
1	25637	1564	-324	15720
2	25637	-516	280	22936
1	25647	1596	-260	15620
2	25647	-444	276	23024
1	25657	1704	-260	15688
2	25657	-424	284	22868
1	25667	1644	-316	15740
2	25667	-488	248	22988
1	25677	1644	-192	15772
2	25677	-532	356	23032
1	25687	1572	-260	15580
2	25687	-520	340	22964
1	25697	1668	-252	15640
2	25697	-508	232	23060
1	25707	1564	-220	15800
2	25707	-456	244	22916
1	25717	1672	-244	15500
2	25717	-420	280	23084
1	25728	1580	-324	15696
2	25728	-424	284	22900
1	25737	1656	-136	15716
2	25737	-512	384	23008
1	25747	1608	-252	15704
2	25747	-452	436	23068
1	25757	1632	-344	15664
2	25757	-540	276	23000
1	25767	1608	-188	15580
2	25767	-424	300	22976
1	25777	1660	-296	15708
2	25777	-484	384	23020
1	25787	1660	-216	15644
2	25787	-492	308	23008
1	25797	1672	-360	15844
2	25797	-420	336	23036
1	25807	1600	-216	15728
2	25807	-452	320	23048
1	25817	1664	-232	15668
2	25817	-472	276	23108
1	25827	1556	-232	15716
2	25827	-468	388	22988
1	25837	1544	-252	15692
2	25837	-512	380	22920
1	25847	1628	-308	15748
2	25847	-588	296	23052
1	25857	1624	-276	15768
2	25857	-504	328	22876
1	25867	1612	-288	15592
2	25867	-500	292	23092
1	25877	1564	-184	15812
2	25877	-508	336	23012
1	25887	1660	-268	15792
2	25887	-540	212	23068
1	25897	1728	-300	15784
2	25897	-528	352	22960
1	25907	1616	-328	15724
2	25907	-512	396	22976
1	25917	1628	-256	15640
2	25917	-524	280	23140
1	25927	1604	-260	15712
2	25927	-440	380	22912
1	25937	1676	-220	15656
2	25937	-532	296	23076
1	25947	1736	-220	15820
2	25947	-392	396	22952
1	25957	1580	-348	15728
2	25957	-528	280	22932
1	25967	1520	-148	15592
2	25967	-528	412	23108
1	25977	1616	-284	15652
2	25977	-508	336	23008
1	25987	1540	-308	15756
2	25987	-576	244	22924
1	25997	1644	-256	15648
2	25997	-468	384	23012
1	26007	1576	-224	15696
